expStage,sectionType,block,blockType,trialCount,blockTrialCount,acc,RT,stimulus,stimCongruency,taskCue,switchType,partKey,stimOnset,respOnset,correct_resp,sectionStart,sectionEnd,sectionTime,subject
prac1-1,instructions,1,,,,,,,,,,,,,,1,42759,42758,Sub1
prac1-2,instructions,1,,,,,,,,,,,,,,42762,93129,50367,Sub1
task,pracTask,1,,1,1,0,,9,c,p,n,,96736,,122,,,,Sub1
task,pracTask,1,,2,2,1,551,7,c,p,r,122,99967,100518,122,,,,Sub1
task,pracTask,1,,3,3,1,547,8,i,p,r,109,102583,103130,109,,,,Sub1
task,pracTask,1,,4,4,1,636,1,i,p,r,122,105056,105692,122,,,,Sub1
task,pracTask,1,,5,5,1,457,4,c,p,r,109,107697,108154,109,,,,Sub1
task,pracTask,1,,6,6,1,499,6,i,p,r,109,110079,110578,109,,,,Sub1
task,pracTask,1,,7,7,1,649,2,c,p,r,109,112554,113203,109,,,,Sub1
task,pracTask,1,,8,8,1,528,8,i,p,r,109,115176,115704,109,,,,Sub1
prac1-2,pracFeedback,1,,,,,,,,,,,,,,117069,119795,2726,Sub1
prac2,instructions,1,,,,,,,,,,,,,,119795,145033,25238,Sub1
task,pracTask,1,,1,1,1,653,6,i,m,n,122,148564,149217,122,,,,Sub1
task,pracTask,1,,2,2,1,429,2,c,m,r,109,151130,151559,109,,,,Sub1
task,pracTask,1,,3,3,1,625,6,i,m,r,122,153524,154149,122,,,,Sub1
task,pracTask,1,,4,4,1,461,1,i,m,r,109,156007,156468,109,,,,Sub1
task,pracTask,1,,5,5,1,455,6,i,m,r,122,158294,158749,122,,,,Sub1
task,pracTask,1,,6,6,1,443,2,c,m,r,109,160718,161161,109,,,,Sub1
task,pracTask,1,,7,7,1,587,4,c,m,r,109,163144,163731,109,,,,Sub1
task,pracTask,1,,8,8,1,514,2,c,m,r,109,165713,166227,109,,,,Sub1
prac2,pracFeedback,1,,,,,,,,,,,,,,167545,169742,2197,Sub1
prac3,instructions,1,,,,,,,,,,,,,,169742,205035,35293,Sub1
task,pracTask,1,,1,1,0,1261,4,c,m,n,122,208579,209840,109,,,,Sub1
task,pracTask,1,,2,2,1,1032,1,i,p,s,122,211717,212749,122,,,,Sub1
task,pracTask,1,,3,3,0,1281,8,i,p,r,122,214666,215947,109,,,,Sub1
task,pracTask,1,,4,4,0,1439,7,c,p,r,109,217855,219294,122,,,,Sub1
task,pracTask,1,,5,5,1,1259,9,c,p,r,122,221240,222499,122,,,,Sub1
task,pracTask,1,,6,6,0,1411,1,i,m,s,122,224457,225868,109,,,,Sub1
task,pracTask,1,,7,7,1,1131,3,i,m,r,109,227680,228811,109,,,,Sub1
task,pracTask,1,,8,8,1,1010,9,c,p,s,122,230743,231753,122,,,,Sub1
task,pracTask,1,,9,9,0,831,8,i,m,s,109,233761,234592,122,,,,Sub1
task,pracTask,1,,10,10,1,753,1,i,m,r,109,236463,237216,109,,,,Sub1
task,pracTask,1,,11,11,1,774,4,c,m,r,109,239091,239865,109,,,,Sub1
task,pracTask,1,,12,12,1,1041,7,c,m,r,122,241771,242812,122,,,,Sub1
task,pracTask,1,,13,13,1,884,9,c,p,s,122,244680,245564,122,,,,Sub1
task,pracTask,1,,14,14,1,664,8,i,p,r,109,247587,248251,109,,,,Sub1
task,pracTask,1,,15,15,0,1500,3,i,m,s,122,250263,251763,109,,,,Sub1
task,pracTask,1,,16,16,1,1345,4,c,p,s,109,253591,254936,109,,,,Sub1
prac3,pracFeedback,1,,,,,,,,,,,,,,256289,260912,4623,Sub1
prac3,instructions,2,,,,,,,,,,,,,,260913,265601,4688,Sub1
task,pracTask,2,,1,1,0,1263,6,i,p,n,122,269154,270417,109,,,,Sub1
task,pracTask,2,,2,2,1,1161,9,c,m,s,122,272373,273534,122,,,,Sub1
task,pracTask,2,,3,3,1,776,7,c,m,r,122,275545,276321,122,,,,Sub1
task,pracTask,2,,4,4,0,1365,4,c,m,r,122,278232,279597,109,,,,Sub1
task,pracTask,2,,5,5,0,1494,1,i,p,s,109,281530,283024,122,,,,Sub1
task,pracTask,2,,6,6,0,1149,7,c,p,r,109,284759,285908,122,,,,Sub1
task,pracTask,2,,7,7,1,1035,1,i,p,r,122,287926,288961,122,,,,Sub1
task,pracTask,2,,8,8,1,1181,9,c,m,s,122,291012,292193,122,,,,Sub1
task,pracTask,2,,9,9,1,920,8,i,m,r,122,294075,294995,122,,,,Sub1
task,pracTask,2,,10,10,1,697,9,c,p,s,122,296849,297546,122,,,,Sub1
task,pracTask,2,,11,11,1,1035,6,i,m,s,122,299472,300507,122,,,,Sub1
task,pracTask,2,,12,12,1,909,4,c,p,s,109,302525,303434,109,,,,Sub1
task,pracTask,2,,13,13,0,1491,6,i,p,r,122,305449,306940,109,,,,Sub1
task,pracTask,2,,14,14,0,1322,4,c,p,r,122,308883,310205,109,,,,Sub1
task,pracTask,2,,15,15,1,1014,6,i,m,s,122,312111,313125,122,,,,Sub1
task,pracTask,2,,16,16,1,1232,1,i,m,r,109,315142,316374,109,,,,Sub1
prac3,pracFeedback,2,,,,,,,,,,,,,,317684,319632,1948,Sub1
prac3,instructions,3,,,,,,,,,,,,,,319633,320632,999,Sub1
task,pracTask,3,,1,1,0,1167,8,i,p,n,122,324181,325348,109,,,,Sub1
task,pracTask,3,,2,2,1,733,9,c,p,r,122,327261,327994,122,,,,Sub1
task,pracTask,3,,3,3,1,867,4,c,m,s,109,329861,330728,109,,,,Sub1
task,pracTask,3,,4,4,1,941,7,c,p,s,122,332704,333645,122,,,,Sub1
task,pracTask,3,,5,5,1,751,4,c,p,r,109,335648,336399,109,,,,Sub1
task,pracTask,3,,6,6,1,806,6,i,m,s,122,338278,339084,122,,,,Sub1
task,pracTask,3,,7,7,1,671,7,c,m,r,122,340945,341616,122,,,,Sub1
task,pracTask,3,,8,8,1,956,1,i,p,s,122,343646,344602,122,,,,Sub1
task,pracTask,3,,9,9,1,665,3,i,p,r,122,346570,347235,122,,,,Sub1
task,pracTask,3,,10,10,1,1207,7,c,m,s,122,349116,350323,122,,,,Sub1
task,pracTask,3,,11,11,1,978,3,i,m,r,109,352206,353184,109,,,,Sub1
task,pracTask,3,,12,12,1,796,1,i,p,s,122,355190,355986,122,,,,Sub1
task,pracTask,3,,13,13,1,584,7,c,p,r,122,357960,358544,122,,,,Sub1
task,pracTask,3,,14,14,1,1220,9,c,m,s,122,360529,361749,122,,,,Sub1
task,pracTask,3,,15,15,1,681,6,i,m,r,122,363811,364492,122,,,,Sub1
task,pracTask,3,,16,16,1,716,1,i,m,r,109,366347,367063,109,,,,Sub1
prac3,pracFeedback,3,,,,,,,,,,,,,,368570,377268,8698,Sub1
main1,instructions,1,,,,,,,,,,,,,,377269,392489,15220,Sub1
main2,instructions,1,,,,,,,,,,,,,,392491,407247,14756,Sub1
task,mainTask,1,B,1,1,1,952,1,i,m,n,109,410814,411766,109,,,,Sub1
task,mainTask,1,B,2,2,1,938,2,c,m,r,109,413687,414625,109,,,,Sub1
task,mainTask,1,B,3,3,1,748,1,i,p,s,122,416556,417304,122,,,,Sub1
task,mainTask,1,B,4,4,1,966,3,i,m,s,109,419356,420322,109,,,,Sub1
task,mainTask,1,B,5,5,1,848,6,i,m,r,122,422261,423109,122,,,,Sub1
task,mainTask,1,B,6,6,1,1092,3,i,p,s,122,425028,426120,122,,,,Sub1
task,mainTask,1,B,7,7,1,810,1,i,m,s,109,428025,428835,109,,,,Sub1
task,mainTask,1,B,8,8,1,1181,9,c,p,s,122,430810,431991,122,,,,Sub1
task,mainTask,1,B,9,9,1,1141,4,c,m,s,109,433906,435047,109,,,,Sub1
task,mainTask,1,B,10,10,1,717,1,i,p,s,122,437064,437781,122,,,,Sub1
task,mainTask,1,B,11,11,1,1109,8,i,p,r,109,439643,440752,109,,,,Sub1
task,mainTask,1,B,12,12,1,1206,3,i,m,s,109,442737,443943,109,,,,Sub1
task,mainTask,1,B,13,13,1,861,2,c,p,s,109,445953,446814,109,,,,Sub1
task,mainTask,1,B,14,14,1,1392,3,i,m,s,109,448723,450115,109,,,,Sub1
task,mainTask,1,B,15,15,1,1004,6,i,m,r,122,452140,453144,122,,,,Sub1
task,mainTask,1,B,16,16,1,795,9,c,p,s,122,455249,456044,122,,,,Sub1
task,mainTask,1,B,17,17,1,896,6,i,m,s,122,458055,458951,122,,,,Sub1
task,mainTask,1,B,18,18,1,1363,8,i,p,s,109,460853,462216,109,,,,Sub1
task,mainTask,1,B,19,19,1,726,3,i,p,r,122,464170,464896,122,,,,Sub1
task,mainTask,1,B,20,20,1,1158,1,i,m,s,109,466952,468110,109,,,,Sub1
task,mainTask,1,B,21,21,0,1387,8,i,m,r,109,470131,471518,122,,,,Sub1
task,mainTask,1,B,22,22,1,792,3,i,m,r,109,473495,474287,109,,,,Sub1
task,mainTask,1,B,23,23,1,977,8,i,m,r,122,476210,477187,122,,,,Sub1
task,mainTask,1,B,24,24,1,548,6,i,m,r,122,479016,479564,122,,,,Sub1
task,mainTask,1,B,25,25,1,759,2,c,p,s,109,481574,482333,109,,,,Sub1
task,mainTask,1,B,26,26,1,659,7,c,p,r,122,484291,484950,122,,,,Sub1
task,mainTask,1,B,27,27,1,781,8,i,p,r,109,486861,487642,109,,,,Sub1
task,mainTask,1,B,28,28,0,1051,3,i,m,s,122,489557,490608,109,,,,Sub1
task,mainTask,1,B,29,29,1,1044,1,i,m,r,109,492671,493715,109,,,,Sub1
task,mainTask,1,B,30,30,1,885,6,i,p,s,109,495643,496528,109,,,,Sub1
task,mainTask,1,B,31,31,1,1184,3,i,m,s,109,498610,499794,109,,,,Sub1
task,mainTask,1,B,32,32,1,938,6,i,p,s,109,501730,502668,109,,,,Sub1
task,mainTask,1,B,33,33,1,825,3,i,m,s,109,504593,505418,109,,,,Sub1
task,mainTask,1,B,34,34,1,1222,4,c,p,s,109,507389,508611,109,,,,Sub1
task,mainTask,1,B,35,35,1,1404,6,i,p,r,109,510579,511983,109,,,,Sub1
task,mainTask,1,B,36,36,1,908,3,i,m,s,109,513859,514767,109,,,,Sub1
task,mainTask,1,B,37,37,1,601,1,i,p,s,122,516643,517244,122,,,,Sub1
task,mainTask,1,B,38,38,1,1030,6,i,m,s,122,519222,520252,122,,,,Sub1
task,mainTask,1,B,39,39,1,815,3,i,p,s,122,522082,522897,122,,,,Sub1
task,mainTask,1,B,40,40,0,1075,9,c,m,s,109,524814,525889,122,,,,Sub1
task,mainTask,1,B,41,41,1,628,6,i,m,r,122,527857,528485,122,,,,Sub1
task,mainTask,1,B,42,42,1,604,1,i,p,s,122,530550,531154,122,,,,Sub1
task,mainTask,1,B,43,43,1,1185,6,i,m,s,122,533089,534274,122,,,,Sub1
task,mainTask,1,B,44,44,1,594,9,c,m,r,122,536292,536886,122,,,,Sub1
task,mainTask,1,B,45,45,1,640,2,c,p,s,109,538712,539352,109,,,,Sub1
task,mainTask,1,B,46,46,1,893,6,i,p,r,109,541186,542079,109,,,,Sub1
task,mainTask,1,B,47,47,1,553,8,i,p,r,109,543896,544449,109,,,,Sub1
task,mainTask,1,B,48,48,1,932,6,i,m,s,122,546415,547347,122,,,,Sub1
task,mainTask,1,B,49,49,1,878,3,i,p,s,122,549324,550202,122,,,,Sub1
task,mainTask,1,B,50,50,1,1061,1,i,m,s,109,552263,553324,109,,,,Sub1
task,mainTask,1,B,51,51,1,594,8,i,m,r,122,555198,555792,122,,,,Sub1
task,mainTask,1,B,52,52,1,703,2,c,p,s,109,557702,558405,109,,,,Sub1
task,mainTask,1,B,53,53,1,654,9,c,p,r,122,560230,560884,122,,,,Sub1
task,mainTask,1,B,54,54,1,917,3,i,m,s,109,562847,563764,109,,,,Sub1
task,mainTask,1,B,55,55,1,937,6,i,p,s,109,565628,566565,109,,,,Sub1
task,mainTask,1,B,56,56,1,950,9,c,m,s,122,568437,569387,122,,,,Sub1
task,mainTask,1,B,57,57,1,710,3,i,p,s,122,571299,572009,122,,,,Sub1
task,mainTask,1,B,58,58,1,926,8,i,m,s,122,574018,574944,122,,,,Sub1
task,mainTask,1,B,59,59,1,856,1,i,p,s,122,577013,577869,122,,,,Sub1
task,mainTask,1,B,60,60,1,1112,8,i,m,s,122,579825,580937,122,,,,Sub1
task,mainTask,1,B,61,61,1,998,3,i,p,s,122,582797,583795,122,,,,Sub1
task,mainTask,1,B,62,62,1,607,1,i,p,r,122,585717,586324,122,,,,Sub1
task,mainTask,1,B,63,63,1,621,2,c,m,s,109,588288,588909,109,,,,Sub1
task,mainTask,1,B,64,64,1,690,3,i,p,s,122,590856,591546,122,,,,Sub1
task,mainTask,1,B,65,65,1,995,8,i,m,s,122,593465,594460,122,,,,Sub1
task,mainTask,1,B,66,66,1,801,3,i,p,s,122,596323,597124,122,,,,Sub1
task,mainTask,1,B,67,67,1,1386,6,i,p,r,109,599108,600494,109,,,,Sub1
task,mainTask,1,B,68,68,0,1388,3,i,m,s,122,602325,603713,109,,,,Sub1
task,mainTask,1,B,69,69,1,1016,8,i,p,s,109,605713,606729,109,,,,Sub1
task,mainTask,1,B,70,70,1,1043,3,i,m,s,109,608643,609686,109,,,,Sub1
task,mainTask,1,B,71,71,0,,8,i,p,s,,611567,,109,,,,Sub1
task,mainTask,1,B,72,72,1,1113,3,i,m,s,109,615005,616118,109,,,,Sub1
task,mainTask,1,B,73,73,1,585,1,i,p,s,122,618098,618683,122,,,,Sub1
task,mainTask,1,B,74,74,1,1152,3,i,m,s,109,620647,621799,109,,,,Sub1
task,mainTask,1,B,75,75,1,672,1,i,p,s,122,623776,624448,122,,,,Sub1
task,mainTask,1,B,76,76,1,720,3,i,m,s,109,626513,627233,109,,,,Sub1
task,mainTask,1,B,77,77,1,678,4,c,p,s,109,629255,629933,109,,,,Sub1
task,mainTask,1,B,78,78,1,973,1,i,m,s,109,631865,632838,109,,,,Sub1
task,mainTask,1,B,79,79,1,793,9,c,p,s,122,634866,635659,122,,,,Sub1
task,mainTask,1,B,80,80,1,746,1,i,m,s,109,637525,638271,109,,,,Sub1
task,mainTask,1,B,81,81,1,809,4,c,p,s,109,640197,641006,109,,,,Sub1
task,mainTask,1,B,82,82,1,1043,2,c,m,s,109,642839,643882,109,,,,Sub1
task,mainTask,1,B,83,83,1,755,1,i,m,r,109,645903,646658,109,,,,Sub1
task,mainTask,1,B,84,84,1,609,2,c,m,r,109,648636,649245,109,,,,Sub1
task,mainTask,1,B,85,85,1,868,8,i,p,s,109,651071,651939,109,,,,Sub1
task,mainTask,1,B,86,86,1,869,4,c,m,s,109,653820,654689,109,,,,Sub1
task,mainTask,1,B,87,87,1,539,1,i,p,s,122,656518,657057,122,,,,Sub1
task,mainTask,1,B,88,88,1,705,2,c,m,s,109,659113,659818,109,,,,Sub1
task,mainTask,1,B,89,89,1,854,8,i,p,s,109,661649,662503,109,,,,Sub1
task,mainTask,1,B,90,90,0,936,6,i,m,s,109,664324,665260,122,,,,Sub1
task,mainTask,1,B,91,91,1,1122,3,i,p,s,122,667251,668373,122,,,,Sub1
task,mainTask,1,B,92,92,1,752,1,i,m,s,109,670408,671160,109,,,,Sub1
task,mainTask,1,B,93,93,1,1103,8,i,p,s,109,673035,674138,109,,,,Sub1
task,mainTask,1,B,94,94,1,756,1,i,m,s,109,676018,676774,109,,,,Sub1
task,mainTask,1,B,95,95,1,595,3,i,p,s,122,678760,679355,122,,,,Sub1
task,mainTask,1,B,96,96,1,1065,8,i,p,r,109,681231,682296,109,,,,Sub1
task,mainTask,1,B,97,97,1,725,3,i,p,r,122,684322,685047,122,,,,Sub1
task,mainTask,1,B,98,98,1,870,2,c,p,r,109,687024,687894,109,,,,Sub1
task,mainTask,1,B,99,99,0,743,6,i,m,s,109,689728,690471,122,,,,Sub1
task,mainTask,1,B,100,100,1,740,3,i,p,s,122,692262,693002,122,,,,Sub1
task,mainTask,1,B,101,101,1,849,1,i,m,s,109,694966,695815,109,,,,Sub1
task,mainTask,1,B,102,102,1,1073,4,c,p,s,109,697639,698712,109,,,,Sub1
task,mainTask,1,B,103,103,1,1078,3,i,m,s,109,700627,701705,109,,,,Sub1
task,mainTask,1,B,104,104,1,890,2,c,m,r,109,703563,704453,109,,,,Sub1
task,mainTask,1,B,105,105,1,807,6,i,m,r,122,706483,707290,122,,,,Sub1
task,mainTask,1,B,106,106,1,724,8,i,p,s,109,709310,710034,109,,,,Sub1
task,mainTask,1,B,107,107,1,998,9,c,m,s,122,711917,712915,122,,,,Sub1
task,mainTask,1,B,108,108,1,819,3,i,p,s,122,714888,715707,122,,,,Sub1
task,mainTask,1,B,109,109,0,885,6,i,m,s,109,717673,718558,122,,,,Sub1
task,mainTask,1,B,110,110,1,837,8,i,p,s,109,720376,721213,109,,,,Sub1
task,mainTask,1,B,111,111,1,800,2,c,m,s,109,723251,724051,109,,,,Sub1
task,mainTask,1,B,112,112,1,627,3,i,p,s,122,725976,726603,122,,,,Sub1
task,mainTask,1,B,113,113,1,750,8,i,p,r,109,728571,729321,109,,,,Sub1
task,mainTask,1,B,114,114,1,740,1,i,m,s,109,731350,732090,109,,,,Sub1
task,mainTask,1,B,115,115,1,676,6,i,m,r,122,734112,734788,122,,,,Sub1
task,mainTask,1,B,116,116,1,753,3,i,p,s,122,736705,737458,122,,,,Sub1
task,mainTask,1,B,117,117,1,599,8,i,p,r,109,739318,739917,109,,,,Sub1
task,mainTask,1,B,118,118,1,636,6,i,m,s,122,741839,742475,122,,,,Sub1
task,mainTask,1,B,119,119,1,720,3,i,p,s,122,744545,745265,122,,,,Sub1
task,mainTask,1,B,120,120,1,736,6,i,m,s,122,747284,748020,122,,,,Sub1
task,mainTask,1,B,121,121,1,608,3,i,p,s,122,749891,750499,122,,,,Sub1
task,mainTask,1,B,122,122,1,736,9,c,m,s,122,752410,753146,122,,,,Sub1
task,mainTask,1,B,123,123,1,892,4,c,p,s,109,755205,756097,109,,,,Sub1
task,mainTask,1,B,124,124,1,718,6,i,m,s,122,758128,758846,122,,,,Sub1
task,mainTask,1,B,125,125,1,790,1,i,p,s,122,760758,761548,122,,,,Sub1
task,mainTask,1,B,126,126,1,728,9,c,p,r,122,763513,764241,122,,,,Sub1
task,mainTask,1,B,127,127,1,738,4,c,m,s,109,766307,767045,109,,,,Sub1
task,mainTask,1,B,128,128,1,759,7,c,p,s,122,768859,769618,122,,,,Sub1
feedback,blockBreak,1,B,,,,,,,,,,,,,771078,784593,13515,Sub1
task,mainTask,2,C,129,1,1,883,2,c,m,n,109,788146,789029,109,,,,Sub1
task,mainTask,2,C,130,2,1,821,6,i,m,r,122,791053,791874,122,,,,Sub1
task,mainTask,2,C,131,3,1,779,4,c,m,r,109,793836,794615,109,,,,Sub1
task,mainTask,2,C,132,4,0,778,9,c,m,r,109,796449,797227,122,,,,Sub1
task,mainTask,2,C,133,5,1,860,7,c,m,r,122,799106,799966,122,,,,Sub1
task,mainTask,2,C,134,6,1,699,9,c,p,s,122,801840,802539,122,,,,Sub1
task,mainTask,2,C,135,7,1,535,7,c,p,r,122,804453,804988,122,,,,Sub1
task,mainTask,2,C,136,8,1,518,9,c,p,r,122,806952,807470,122,,,,Sub1
task,mainTask,2,C,137,9,1,612,7,c,p,r,122,809405,810017,122,,,,Sub1
task,mainTask,2,C,138,10,1,645,9,c,m,s,122,811937,812582,122,,,,Sub1
task,mainTask,2,C,139,11,1,565,6,i,m,r,122,814489,815054,122,,,,Sub1
task,mainTask,2,C,140,12,1,823,8,i,p,s,109,816967,817790,109,,,,Sub1
task,mainTask,2,C,141,13,1,569,9,c,p,r,122,819626,820195,122,,,,Sub1
task,mainTask,2,C,142,14,1,767,2,c,m,s,109,822208,822975,109,,,,Sub1
task,mainTask,2,C,143,15,1,836,9,c,p,s,122,824904,825740,122,,,,Sub1
task,mainTask,2,C,144,16,1,1095,7,c,m,s,122,827603,828698,122,,,,Sub1
task,mainTask,2,C,145,17,1,494,9,c,m,r,122,830669,831163,122,,,,Sub1
task,mainTask,2,C,146,18,1,571,8,i,p,s,109,833224,833795,109,,,,Sub1
task,mainTask,2,C,147,19,1,793,7,c,p,r,122,835624,836417,122,,,,Sub1
task,mainTask,2,C,148,20,1,808,4,c,p,r,109,838419,839227,109,,,,Sub1
task,mainTask,2,C,149,21,1,734,2,c,p,r,109,841061,841795,109,,,,Sub1
task,mainTask,2,C,150,22,1,699,4,c,p,r,109,843628,844327,109,,,,Sub1
task,mainTask,2,C,151,23,1,576,9,c,p,r,122,846186,846762,122,,,,Sub1
task,mainTask,2,C,152,24,1,483,7,c,p,r,122,848769,849252,122,,,,Sub1
task,mainTask,2,C,153,25,1,871,2,c,p,r,109,851271,852142,109,,,,Sub1
task,mainTask,2,C,154,26,1,504,8,i,p,r,109,854071,854575,109,,,,Sub1
task,mainTask,2,C,155,27,1,881,1,i,m,s,109,856556,857437,109,,,,Sub1
task,mainTask,2,C,156,28,1,685,8,i,m,r,122,859312,859997,122,,,,Sub1
task,mainTask,2,C,157,29,1,1085,2,c,m,r,109,862013,863098,109,,,,Sub1
task,mainTask,2,C,158,30,1,628,9,c,m,r,122,865014,865642,122,,,,Sub1
task,mainTask,2,C,159,31,1,523,1,i,m,r,109,867503,868026,109,,,,Sub1
task,mainTask,2,C,160,32,1,729,4,c,m,r,109,869899,870628,109,,,,Sub1
task,mainTask,2,C,161,33,1,677,9,c,p,s,122,872604,873281,122,,,,Sub1
task,mainTask,2,C,162,34,1,539,4,c,p,r,109,875351,875890,109,,,,Sub1
task,mainTask,2,C,163,35,1,610,7,c,p,r,122,877775,878385,122,,,,Sub1
task,mainTask,2,C,164,36,1,627,2,c,m,s,109,880306,880933,109,,,,Sub1
task,mainTask,2,C,165,37,1,1208,4,c,p,s,109,882812,884020,109,,,,Sub1
task,mainTask,2,C,166,38,1,525,7,c,p,r,122,885859,886384,122,,,,Sub1
task,mainTask,2,C,167,39,1,540,9,c,p,r,122,888303,888843,122,,,,Sub1
task,mainTask,2,C,168,40,1,686,1,i,p,r,122,890682,891368,122,,,,Sub1
task,mainTask,2,C,169,41,1,749,2,c,p,r,109,893284,894033,109,,,,Sub1
task,mainTask,2,C,170,42,1,619,4,c,m,s,109,895962,896581,109,,,,Sub1
task,mainTask,2,C,171,43,1,1079,7,c,m,r,122,898618,899697,122,,,,Sub1
task,mainTask,2,C,172,44,1,517,3,i,m,r,109,901618,902135,109,,,,Sub1
task,mainTask,2,C,173,45,1,811,1,i,m,r,109,904070,904881,109,,,,Sub1
task,mainTask,2,C,174,46,1,491,2,c,m,r,109,906899,907390,109,,,,Sub1
task,mainTask,2,C,175,47,1,554,4,c,m,r,109,909370,909924,109,,,,Sub1
task,mainTask,2,C,176,48,1,712,1,i,m,r,109,911749,912461,109,,,,Sub1
task,mainTask,2,C,177,49,1,597,9,c,p,s,122,914295,914892,122,,,,Sub1
task,mainTask,2,C,178,50,1,672,6,i,p,r,109,916762,917434,109,,,,Sub1
task,mainTask,2,C,179,51,1,605,9,c,p,r,122,919464,920069,122,,,,Sub1
task,mainTask,2,C,180,52,1,586,4,c,m,s,109,922033,922619,109,,,,Sub1
task,mainTask,2,C,181,53,1,626,7,c,m,r,122,924596,925222,122,,,,Sub1
task,mainTask,2,C,182,54,1,543,2,c,m,r,109,927245,927788,109,,,,Sub1
task,mainTask,2,C,183,55,1,582,8,i,m,r,122,929779,930361,122,,,,Sub1
task,mainTask,2,C,184,56,1,635,7,c,p,s,122,932328,932963,122,,,,Sub1
task,mainTask,2,C,185,57,1,543,4,c,m,s,109,934828,935371,109,,,,Sub1
task,mainTask,2,C,186,58,1,549,2,c,m,r,109,937258,937807,109,,,,Sub1
task,mainTask,2,C,187,59,1,845,9,c,m,r,122,939645,940490,122,,,,Sub1
task,mainTask,2,C,188,60,1,591,4,c,m,r,109,942505,943096,109,,,,Sub1
task,mainTask,2,C,189,61,1,706,7,c,m,r,122,945120,945826,122,,,,Sub1
task,mainTask,2,C,190,62,1,557,9,c,m,r,122,947780,948337,122,,,,Sub1
task,mainTask,2,C,191,63,1,516,4,c,m,r,109,950303,950819,109,,,,Sub1
task,mainTask,2,C,192,64,1,670,9,c,m,r,122,952748,953418,122,,,,Sub1
task,mainTask,2,C,193,65,1,827,2,c,p,s,109,955439,956266,109,,,,Sub1
task,mainTask,2,C,194,66,1,557,7,c,p,r,122,958296,958853,122,,,,Sub1
task,mainTask,2,C,195,67,1,562,9,c,p,r,122,960878,961440,122,,,,Sub1
task,mainTask,2,C,196,68,1,617,1,i,p,r,122,963412,964029,122,,,,Sub1
task,mainTask,2,C,197,69,1,706,7,c,m,s,122,966041,966747,122,,,,Sub1
task,mainTask,2,C,198,70,1,511,9,c,m,r,122,968679,969190,122,,,,Sub1
task,mainTask,2,C,199,71,1,490,2,c,m,r,109,971058,971548,109,,,,Sub1
task,mainTask,2,C,200,72,1,647,7,c,m,r,122,973578,974225,122,,,,Sub1
task,mainTask,2,C,201,73,1,498,9,c,m,r,122,976186,976684,122,,,,Sub1
task,mainTask,2,C,202,74,1,553,4,c,m,r,109,978664,979217,109,,,,Sub1
task,mainTask,2,C,203,75,1,565,2,c,m,r,109,981106,981671,109,,,,Sub1
task,mainTask,2,C,204,76,1,700,8,i,m,r,122,983505,984205,122,,,,Sub1
task,mainTask,2,C,205,77,1,756,1,i,m,r,109,986071,986827,109,,,,Sub1
task,mainTask,2,C,206,78,1,454,2,c,m,r,109,988805,989259,109,,,,Sub1
task,mainTask,2,C,207,79,1,724,7,c,m,r,122,991135,991859,122,,,,Sub1
task,mainTask,2,C,208,80,1,503,2,c,m,r,109,993931,994434,109,,,,Sub1
task,mainTask,2,C,209,81,1,733,4,c,p,s,109,996421,997154,109,,,,Sub1
task,mainTask,2,C,210,82,1,542,2,c,p,r,109,998985,999527,109,,,,Sub1
task,mainTask,2,C,211,83,1,542,9,c,p,r,122,1001361,1001903,122,,,,Sub1
task,mainTask,2,C,212,84,1,566,7,c,p,r,122,1003973,1004539,122,,,,Sub1
task,mainTask,2,C,213,85,1,475,2,c,m,s,109,1006367,1006842,109,,,,Sub1
task,mainTask,2,C,214,86,1,476,4,c,m,r,109,1008768,1009244,109,,,,Sub1
task,mainTask,2,C,215,87,1,748,2,c,p,s,109,1011177,1011925,109,,,,Sub1
task,mainTask,2,C,216,88,1,711,6,i,p,r,109,1013800,1014511,109,,,,Sub1
task,mainTask,2,C,217,89,1,498,4,c,p,r,109,1016442,1016940,109,,,,Sub1
task,mainTask,2,C,218,90,1,555,2,c,p,r,109,1018772,1019327,109,,,,Sub1
task,mainTask,2,C,219,91,1,595,1,i,p,r,122,1021150,1021745,122,,,,Sub1
task,mainTask,2,C,220,92,1,620,9,c,p,r,122,1023670,1024290,122,,,,Sub1
task,mainTask,2,C,221,93,1,856,3,i,m,s,109,1026294,1027150,109,,,,Sub1
task,mainTask,2,C,222,94,0,751,7,c,m,r,109,1028980,1029731,122,,,,Sub1
task,mainTask,2,C,223,95,1,582,2,c,m,r,109,1031720,1032302,109,,,,Sub1
task,mainTask,2,C,224,96,1,615,9,c,p,s,122,1034332,1034947,122,,,,Sub1
task,mainTask,2,C,225,97,1,550,4,c,p,r,109,1036802,1037352,109,,,,Sub1
task,mainTask,2,C,226,98,1,941,3,i,p,r,122,1039229,1040170,122,,,,Sub1
task,mainTask,2,C,227,99,1,536,2,c,p,r,109,1042040,1042576,109,,,,Sub1
task,mainTask,2,C,228,100,1,687,7,c,p,r,122,1044591,1045278,122,,,,Sub1
task,mainTask,2,C,229,101,1,587,9,c,p,r,122,1047149,1047736,122,,,,Sub1
task,mainTask,2,C,230,102,1,895,4,c,m,s,109,1049748,1050643,109,,,,Sub1
task,mainTask,2,C,231,103,1,635,7,c,p,s,122,1052563,1053198,122,,,,Sub1
task,mainTask,2,C,232,104,1,543,9,c,p,r,122,1055162,1055705,122,,,,Sub1
task,mainTask,2,C,233,105,1,460,7,c,p,r,122,1057741,1058201,122,,,,Sub1
task,mainTask,2,C,234,106,1,549,2,c,p,r,109,1060025,1060574,109,,,,Sub1
task,mainTask,2,C,235,107,1,619,1,i,p,r,122,1062608,1063227,122,,,,Sub1
task,mainTask,2,C,236,108,1,552,4,c,p,r,109,1065090,1065642,109,,,,Sub1
task,mainTask,2,C,237,109,1,919,6,i,m,s,122,1067613,1068532,122,,,,Sub1
task,mainTask,2,C,238,110,1,692,3,i,m,r,109,1070496,1071188,109,,,,Sub1
task,mainTask,2,C,239,111,1,746,4,c,m,r,109,1073127,1073873,109,,,,Sub1
task,mainTask,2,C,240,112,1,533,9,c,m,r,122,1075801,1076334,122,,,,Sub1
task,mainTask,2,C,241,113,1,618,7,c,p,s,122,1078395,1079013,122,,,,Sub1
task,mainTask,2,C,242,114,1,797,8,i,m,s,122,1081088,1081885,122,,,,Sub1
task,mainTask,2,C,243,115,1,568,7,c,m,r,122,1083795,1084363,122,,,,Sub1
task,mainTask,2,C,244,116,1,472,6,i,m,r,122,1086284,1086756,122,,,,Sub1
task,mainTask,2,C,245,117,1,562,7,c,p,s,122,1088795,1089357,122,,,,Sub1
task,mainTask,2,C,246,118,1,530,2,c,p,r,109,1091374,1091904,109,,,,Sub1
task,mainTask,2,C,247,119,1,540,1,i,p,r,122,1093768,1094308,122,,,,Sub1
task,mainTask,2,C,248,120,1,590,6,i,p,r,109,1096183,1096773,109,,,,Sub1
task,mainTask,2,C,249,121,1,674,3,i,p,r,122,1098636,1099310,122,,,,Sub1
task,mainTask,2,C,250,122,1,685,2,c,p,r,109,1101186,1101871,109,,,,Sub1
task,mainTask,2,C,251,123,1,788,6,i,m,s,122,1103886,1104674,122,,,,Sub1
task,mainTask,2,C,252,124,1,514,1,i,m,r,109,1106545,1107059,109,,,,Sub1
task,mainTask,2,C,253,125,1,584,9,c,m,r,122,1108972,1109556,122,,,,Sub1
task,mainTask,2,C,254,126,1,695,8,i,p,s,109,1111520,1112215,109,,,,Sub1
task,mainTask,2,C,255,127,1,606,9,c,p,r,122,1114288,1114894,122,,,,Sub1
task,mainTask,2,C,256,128,1,484,7,c,p,r,122,1116818,1117302,122,,,,Sub1
feedback,blockBreak,2,C,,,,,,,,,,,,,1118777,1137163,18386,Sub1
task,mainTask,3,A,257,1,1,1060,8,i,p,n,109,1140717,1141777,109,,,,Sub1
task,mainTask,3,A,258,2,1,525,1,i,p,r,122,1143804,1144329,122,,,,Sub1
task,mainTask,3,A,259,3,1,493,3,i,p,r,122,1146345,1146838,122,,,,Sub1
task,mainTask,3,A,260,4,1,455,1,i,p,r,122,1148853,1149308,122,,,,Sub1
task,mainTask,3,A,261,5,1,560,9,c,p,r,122,1151235,1151795,122,,,,Sub1
task,mainTask,3,A,262,6,1,499,4,c,p,r,109,1153679,1154178,109,,,,Sub1
task,mainTask,3,A,263,7,1,1075,6,i,p,r,109,1156044,1157119,109,,,,Sub1
task,mainTask,3,A,264,8,1,648,9,c,m,s,122,1159146,1159794,122,,,,Sub1
task,mainTask,3,A,265,9,1,644,3,i,m,r,109,1161855,1162499,109,,,,Sub1
task,mainTask,3,A,266,10,1,741,6,i,p,s,109,1164431,1165172,109,,,,Sub1
task,mainTask,3,A,267,11,1,1003,1,i,m,s,109,1167062,1168065,109,,,,Sub1
task,mainTask,3,A,268,12,1,695,4,c,m,r,109,1170032,1170727,109,,,,Sub1
task,mainTask,3,A,269,13,1,574,2,c,m,r,109,1172704,1173278,109,,,,Sub1
task,mainTask,3,A,270,14,1,758,6,i,p,s,109,1175157,1175915,109,,,,Sub1
task,mainTask,3,A,271,15,1,677,8,i,p,r,109,1177834,1178511,109,,,,Sub1
task,mainTask,3,A,272,16,1,629,3,i,p,r,122,1180409,1181038,122,,,,Sub1
task,mainTask,3,A,273,17,1,533,6,i,p,r,109,1182911,1183444,109,,,,Sub1
task,mainTask,3,A,274,18,1,610,7,c,p,r,122,1185360,1185970,122,,,,Sub1
task,mainTask,3,A,275,19,1,589,8,i,p,r,109,1187924,1188513,109,,,,Sub1
task,mainTask,3,A,276,20,1,561,2,c,m,s,109,1190392,1190953,109,,,,Sub1
task,mainTask,3,A,277,21,1,929,1,i,m,r,109,1192896,1193825,109,,,,Sub1
task,mainTask,3,A,278,22,1,554,2,c,m,r,109,1195755,1196309,109,,,,Sub1
task,mainTask,3,A,279,23,1,644,3,i,m,r,109,1198287,1198931,109,,,,Sub1
task,mainTask,3,A,280,24,1,794,8,i,m,r,122,1200760,1201554,122,,,,Sub1
task,mainTask,3,A,281,25,1,490,3,i,m,r,109,1203419,1203909,109,,,,Sub1
task,mainTask,3,A,282,26,1,632,6,i,m,r,122,1205840,1206472,122,,,,Sub1
task,mainTask,3,A,283,27,1,511,3,i,m,r,109,1208338,1208849,109,,,,Sub1
task,mainTask,3,A,284,28,1,506,8,i,p,s,109,1210685,1211191,109,,,,Sub1
task,mainTask,3,A,285,29,1,720,6,i,m,s,122,1213022,1213742,122,,,,Sub1
task,mainTask,3,A,286,30,1,937,8,i,p,s,109,1215844,1216781,109,,,,Sub1
task,mainTask,3,A,287,31,1,812,6,i,m,s,122,1218720,1219532,122,,,,Sub1
task,mainTask,3,A,288,32,1,668,9,c,m,r,122,1221454,1222122,122,,,,Sub1
task,mainTask,3,A,289,33,1,546,6,i,m,r,122,1224189,1224735,122,,,,Sub1
task,mainTask,3,A,290,34,1,512,8,i,m,r,122,1226791,1227303,122,,,,Sub1
task,mainTask,3,A,291,35,1,612,3,i,m,r,109,1229276,1229888,109,,,,Sub1
task,mainTask,3,A,292,36,1,772,1,i,m,r,109,1231718,1232490,109,,,,Sub1
task,mainTask,3,A,293,37,1,927,6,i,m,r,122,1234426,1235353,122,,,,Sub1
task,mainTask,3,A,294,38,1,564,3,i,m,r,109,1237322,1237886,109,,,,Sub1
task,mainTask,3,A,295,39,1,519,6,i,m,r,122,1239763,1240282,122,,,,Sub1
task,mainTask,3,A,296,40,1,772,8,i,m,r,122,1242257,1243029,122,,,,Sub1
task,mainTask,3,A,297,41,1,736,3,i,m,r,109,1245009,1245745,109,,,,Sub1
task,mainTask,3,A,298,42,1,736,8,i,p,s,109,1247636,1248372,109,,,,Sub1
task,mainTask,3,A,299,43,1,826,6,i,m,s,122,1250263,1251089,122,,,,Sub1
task,mainTask,3,A,300,44,1,717,1,i,p,s,122,1253105,1253822,122,,,,Sub1
task,mainTask,3,A,301,45,1,585,3,i,p,r,122,1255654,1256239,122,,,,Sub1
task,mainTask,3,A,302,46,1,574,8,i,p,r,109,1258206,1258780,109,,,,Sub1
task,mainTask,3,A,303,47,1,734,9,c,m,s,122,1260768,1261502,122,,,,Sub1
task,mainTask,3,A,304,48,1,696,8,i,m,r,122,1263521,1264217,122,,,,Sub1
task,mainTask,3,A,305,49,1,796,2,c,m,r,109,1266180,1266976,109,,,,Sub1
task,mainTask,3,A,306,50,1,594,3,i,m,r,109,1268822,1269416,109,,,,Sub1
task,mainTask,3,A,307,51,1,611,6,i,m,r,122,1271350,1271961,122,,,,Sub1
task,mainTask,3,A,308,52,1,698,8,i,p,s,109,1274021,1274719,109,,,,Sub1
task,mainTask,3,A,309,53,1,551,3,i,p,r,122,1276560,1277111,122,,,,Sub1
task,mainTask,3,A,310,54,1,551,8,i,p,r,109,1279181,1279732,109,,,,Sub1
task,mainTask,3,A,311,55,1,814,6,i,p,r,109,1281621,1282435,109,,,,Sub1
task,mainTask,3,A,312,56,1,511,8,i,p,r,109,1284470,1284981,109,,,,Sub1
task,mainTask,3,A,313,57,1,529,2,c,p,r,109,1287023,1287552,109,,,,Sub1
task,mainTask,3,A,314,58,1,826,3,i,p,r,122,1289482,1290308,122,,,,Sub1
task,mainTask,3,A,315,59,1,563,7,c,p,r,122,1292375,1292938,122,,,,Sub1
task,mainTask,3,A,316,60,1,834,1,i,m,s,109,1294849,1295683,109,,,,Sub1
task,mainTask,3,A,317,61,1,762,8,i,m,r,122,1297672,1298434,122,,,,Sub1
task,mainTask,3,A,318,62,1,639,7,c,m,r,122,1300397,1301036,122,,,,Sub1
task,mainTask,3,A,319,63,1,621,3,i,p,s,122,1302919,1303540,122,,,,Sub1
task,mainTask,3,A,320,64,1,594,4,c,p,r,109,1305424,1306018,109,,,,Sub1
task,mainTask,3,A,321,65,1,1048,3,i,m,s,109,1308048,1309096,109,,,,Sub1
task,mainTask,3,A,322,66,1,531,7,c,m,r,122,1311081,1311612,122,,,,Sub1
task,mainTask,3,A,323,67,1,629,9,c,m,r,122,1313569,1314198,122,,,,Sub1
task,mainTask,3,A,324,68,1,591,3,i,m,r,109,1316216,1316807,109,,,,Sub1
task,mainTask,3,A,325,69,1,646,6,i,p,s,109,1318732,1319378,109,,,,Sub1
task,mainTask,3,A,326,70,1,541,8,i,p,r,109,1321257,1321798,109,,,,Sub1
task,mainTask,3,A,327,71,1,526,3,i,p,r,122,1323734,1324260,122,,,,Sub1
task,mainTask,3,A,328,72,1,658,6,i,p,r,109,1326284,1326942,109,,,,Sub1
task,mainTask,3,A,329,73,1,541,4,c,p,r,109,1328973,1329514,109,,,,Sub1
task,mainTask,3,A,330,74,1,666,1,i,p,r,122,1331556,1332222,122,,,,Sub1
task,mainTask,3,A,331,75,1,751,8,i,m,s,122,1334185,1334936,122,,,,Sub1
task,mainTask,3,A,332,76,1,782,2,c,m,r,109,1336913,1337695,109,,,,Sub1
task,mainTask,3,A,333,77,1,749,8,i,m,r,122,1339677,1340426,122,,,,Sub1
task,mainTask,3,A,334,78,1,750,4,c,m,r,109,1342393,1343143,109,,,,Sub1
task,mainTask,3,A,335,79,1,701,8,i,p,s,109,1345081,1345782,109,,,,Sub1
task,mainTask,3,A,336,80,1,536,3,i,p,r,122,1347710,1348246,122,,,,Sub1
task,mainTask,3,A,337,81,1,574,4,c,p,r,109,1350321,1350895,109,,,,Sub1
task,mainTask,3,A,338,82,1,556,1,i,p,r,122,1352778,1353334,122,,,,Sub1
task,mainTask,3,A,339,83,1,540,8,i,p,r,109,1355163,1355703,109,,,,Sub1
task,mainTask,3,A,340,84,1,605,1,i,p,r,122,1357528,1358133,122,,,,Sub1
task,mainTask,3,A,341,85,1,518,6,i,p,r,109,1360110,1360628,109,,,,Sub1
task,mainTask,3,A,342,86,1,877,8,i,m,s,122,1362658,1363535,122,,,,Sub1
task,mainTask,3,A,343,87,1,898,6,i,p,s,109,1365516,1366414,109,,,,Sub1
task,mainTask,3,A,344,88,1,674,3,i,p,r,122,1368393,1369067,122,,,,Sub1
task,mainTask,3,A,345,89,1,582,8,i,p,r,109,1371036,1371618,109,,,,Sub1
task,mainTask,3,A,346,90,1,655,6,i,p,r,109,1373660,1374315,109,,,,Sub1
task,mainTask,3,A,347,91,1,499,8,i,p,r,109,1376257,1376756,109,,,,Sub1
task,mainTask,3,A,348,92,1,530,4,c,p,r,109,1378690,1379220,109,,,,Sub1
task,mainTask,3,A,349,93,1,666,6,i,p,r,109,1381096,1381762,109,,,,Sub1
task,mainTask,3,A,350,94,1,887,3,i,m,s,109,1383802,1384689,109,,,,Sub1
task,mainTask,3,A,351,95,1,779,6,i,p,s,109,1386717,1387496,109,,,,Sub1
task,mainTask,3,A,352,96,1,609,1,i,p,r,122,1389433,1390042,122,,,,Sub1
task,mainTask,3,A,353,97,1,732,3,i,p,r,122,1392120,1392852,122,,,,Sub1
task,mainTask,3,A,354,98,1,834,8,i,m,s,122,1394927,1395761,122,,,,Sub1
task,mainTask,3,A,355,99,1,547,4,c,m,r,109,1397614,1398161,109,,,,Sub1
task,mainTask,3,A,356,100,1,743,8,i,p,s,109,1400137,1400880,109,,,,Sub1
task,mainTask,3,A,357,101,1,545,1,i,p,r,122,1402767,1403312,122,,,,Sub1
task,mainTask,3,A,358,102,1,504,4,c,p,r,109,1405239,1405743,109,,,,Sub1
task,mainTask,3,A,359,103,1,880,6,i,p,r,109,1407634,1408514,109,,,,Sub1
task,mainTask,3,A,360,104,1,516,4,c,p,r,109,1410498,1411014,109,,,,Sub1
task,mainTask,3,A,361,105,1,551,2,c,p,r,109,1413049,1413600,109,,,,Sub1
task,mainTask,3,A,362,106,1,805,6,i,m,s,122,1415537,1416342,122,,,,Sub1
task,mainTask,3,A,363,107,1,699,1,i,m,r,109,1418305,1419004,109,,,,Sub1
task,mainTask,3,A,364,108,1,662,6,i,m,r,122,1420980,1421642,122,,,,Sub1
task,mainTask,3,A,365,109,1,555,2,c,m,r,109,1423478,1424033,109,,,,Sub1
task,mainTask,3,A,366,110,0,562,6,i,m,r,109,1426010,1426572,122,,,,Sub1
task,mainTask,3,A,367,111,1,899,1,i,p,s,122,1428541,1429440,122,,,,Sub1
task,mainTask,3,A,368,112,1,665,6,i,p,r,109,1431469,1432134,109,,,,Sub1
task,mainTask,3,A,369,113,0,947,2,c,m,s,122,1433959,1434906,109,,,,Sub1
task,mainTask,3,A,370,114,1,683,9,c,m,r,122,1436839,1437522,122,,,,Sub1
task,mainTask,3,A,371,115,1,633,8,i,m,r,122,1439486,1440119,122,,,,Sub1
task,mainTask,3,A,372,116,1,583,1,i,m,r,109,1442086,1442669,109,,,,Sub1
task,mainTask,3,A,373,117,1,729,8,i,m,r,122,1444651,1445380,122,,,,Sub1
task,mainTask,3,A,374,118,1,539,6,i,m,r,122,1447443,1447982,122,,,,Sub1
task,mainTask,3,A,375,119,1,548,2,c,m,r,109,1449996,1450544,109,,,,Sub1
task,mainTask,3,A,376,120,1,609,7,c,m,r,122,1452530,1453139,122,,,,Sub1
task,mainTask,3,A,377,121,1,763,8,i,p,s,109,1455019,1455782,109,,,,Sub1
task,mainTask,3,A,378,122,1,538,3,i,p,r,122,1457720,1458258,122,,,,Sub1
task,mainTask,3,A,379,123,1,649,7,c,p,r,122,1460131,1460780,122,,,,Sub1
task,mainTask,3,A,380,124,1,824,1,i,m,s,109,1462618,1463442,109,,,,Sub1
task,mainTask,3,A,381,125,1,548,3,i,m,r,109,1465480,1466028,109,,,,Sub1
task,mainTask,3,A,382,126,1,544,6,i,m,r,122,1468050,1468594,122,,,,Sub1
task,mainTask,3,A,383,127,1,588,8,i,m,r,122,1470534,1471122,122,,,,Sub1
task,mainTask,3,A,384,128,1,559,6,i,m,r,122,1473007,1473566,122,,,,Sub1
feedback,blockBreak,3,A,,,,,,,,,,,,,1474938,1489999,15061,Sub1
task,mainTask,4,D,385,1,1,844,3,i,m,n,109,1493546,1494390,109,,,,Sub1
task,mainTask,4,D,386,2,1,542,2,c,m,r,109,1496267,1496809,109,,,,Sub1
task,mainTask,4,D,387,3,1,619,1,i,p,s,122,1498821,1499440,122,,,,Sub1
task,mainTask,4,D,388,4,1,695,3,i,m,s,109,1501368,1502063,109,,,,Sub1
task,mainTask,4,D,389,5,1,680,8,i,p,s,109,1504090,1504770,109,,,,Sub1
task,mainTask,4,D,390,6,1,584,2,c,m,s,109,1506814,1507398,109,,,,Sub1
task,mainTask,4,D,391,7,1,682,8,i,p,s,109,1509442,1510124,109,,,,Sub1
task,mainTask,4,D,392,8,1,876,4,c,p,r,109,1512052,1512928,109,,,,Sub1
task,mainTask,4,D,393,9,1,697,2,c,m,s,109,1515003,1515700,109,,,,Sub1
task,mainTask,4,D,394,10,1,1338,4,c,p,s,109,1517679,1519017,109,,,,Sub1
task,mainTask,4,D,395,11,1,690,7,c,m,s,122,1520945,1521635,122,,,,Sub1
task,mainTask,4,D,396,12,1,610,2,c,p,s,109,1523741,1524351,109,,,,Sub1
task,mainTask,4,D,397,13,1,826,8,i,m,s,122,1526179,1527005,122,,,,Sub1
task,mainTask,4,D,398,14,1,695,7,c,p,s,122,1528836,1529531,122,,,,Sub1
task,mainTask,4,D,399,15,1,552,2,c,m,s,109,1531553,1532105,109,,,,Sub1
task,mainTask,4,D,400,16,1,608,9,c,p,s,122,1534122,1534730,122,,,,Sub1
task,mainTask,4,D,401,17,1,698,7,c,m,s,122,1536797,1537495,122,,,,Sub1
task,mainTask,4,D,402,18,1,557,2,c,p,s,109,1539521,1540078,109,,,,Sub1
task,mainTask,4,D,403,19,1,714,4,c,m,s,109,1542101,1542815,109,,,,Sub1
task,mainTask,4,D,404,20,1,551,7,c,p,s,122,1544781,1545332,122,,,,Sub1
task,mainTask,4,D,405,21,1,667,9,c,m,s,122,1547312,1547979,122,,,,Sub1
task,mainTask,4,D,406,22,1,813,7,c,p,s,122,1549813,1550626,122,,,,Sub1
task,mainTask,4,D,407,23,1,637,3,i,m,s,109,1552615,1553252,109,,,,Sub1
task,mainTask,4,D,408,24,1,592,7,c,p,s,122,1555168,1555760,122,,,,Sub1
task,mainTask,4,D,409,25,1,590,4,c,m,s,109,1557828,1558418,109,,,,Sub1
task,mainTask,4,D,410,26,1,593,9,c,m,r,122,1560498,1561091,122,,,,Sub1
task,mainTask,4,D,411,27,1,550,7,c,p,s,122,1562930,1563480,122,,,,Sub1
task,mainTask,4,D,412,28,1,872,9,c,m,s,122,1565496,1566368,122,,,,Sub1
task,mainTask,4,D,413,29,1,650,1,i,p,s,122,1568377,1569027,122,,,,Sub1
task,mainTask,4,D,414,30,1,744,4,c,p,r,109,1570910,1571654,109,,,,Sub1
task,mainTask,4,D,415,31,1,617,9,c,m,s,122,1573575,1574192,122,,,,Sub1
task,mainTask,4,D,416,32,0,718,3,i,p,s,109,1576073,1576791,122,,,,Sub1
task,mainTask,4,D,417,33,1,609,4,c,p,r,109,1578823,1579432,109,,,,Sub1
task,mainTask,4,D,418,34,1,624,9,c,p,r,122,1581341,1581965,122,,,,Sub1
task,mainTask,4,D,419,35,1,611,7,c,p,r,122,1583947,1584558,122,,,,Sub1
task,mainTask,4,D,420,36,1,637,1,i,m,s,109,1586400,1587037,109,,,,Sub1
task,mainTask,4,D,421,37,1,595,7,c,p,s,122,1589053,1589648,122,,,,Sub1
task,mainTask,4,D,422,38,1,774,2,c,m,s,109,1591586,1592360,109,,,,Sub1
task,mainTask,4,D,423,39,1,532,7,c,p,s,122,1594204,1594736,122,,,,Sub1
task,mainTask,4,D,424,40,1,766,3,i,m,s,109,1596768,1597534,109,,,,Sub1
task,mainTask,4,D,425,41,1,595,9,c,m,r,122,1599365,1599960,122,,,,Sub1
task,mainTask,4,D,426,42,1,931,4,c,m,r,109,1601987,1602918,109,,,,Sub1
task,mainTask,4,D,427,43,1,587,7,c,m,r,122,1604758,1605345,122,,,,Sub1
task,mainTask,4,D,428,44,1,698,4,c,p,s,109,1607278,1607976,109,,,,Sub1
task,mainTask,4,D,429,45,1,726,2,c,m,s,109,1609965,1610691,109,,,,Sub1
task,mainTask,4,D,430,46,1,495,9,c,p,s,122,1612573,1613068,122,,,,Sub1
task,mainTask,4,D,431,47,1,793,1,i,p,r,122,1615030,1615823,122,,,,Sub1
task,mainTask,4,D,432,48,1,649,9,c,m,s,122,1617891,1618540,122,,,,Sub1
task,mainTask,4,D,433,49,1,597,2,c,p,s,109,1620609,1621206,109,,,,Sub1
task,mainTask,4,D,434,50,0,1031,7,c,m,s,109,1623185,1624216,122,,,,Sub1
task,mainTask,4,D,435,51,1,606,9,c,m,r,122,1626109,1626715,122,,,,Sub1
task,mainTask,4,D,436,52,1,817,1,i,m,r,109,1628733,1629550,109,,,,Sub1
task,mainTask,4,D,437,53,1,728,7,c,m,r,122,1631621,1632349,122,,,,Sub1
task,mainTask,4,D,438,54,1,546,1,i,p,s,122,1634188,1634734,122,,,,Sub1
task,mainTask,4,D,439,55,1,651,3,i,m,s,109,1636600,1637251,109,,,,Sub1
task,mainTask,4,D,440,56,1,675,7,c,m,r,122,1639233,1639908,122,,,,Sub1
task,mainTask,4,D,441,57,1,536,3,i,m,r,109,1641738,1642274,109,,,,Sub1
task,mainTask,4,D,442,58,1,690,2,c,p,s,109,1644115,1644805,109,,,,Sub1
task,mainTask,4,D,443,59,1,703,9,c,m,s,122,1646786,1647489,122,,,,Sub1
task,mainTask,4,D,444,60,1,871,2,c,p,s,109,1649489,1650360,109,,,,Sub1
task,mainTask,4,D,445,61,1,568,7,c,m,s,122,1652431,1652999,122,,,,Sub1
task,mainTask,4,D,446,62,1,661,9,c,p,s,122,1654875,1655536,122,,,,Sub1
task,mainTask,4,D,447,63,1,567,4,c,m,s,109,1657613,1658180,109,,,,Sub1
task,mainTask,4,D,448,64,1,608,7,c,p,s,122,1659979,1660587,122,,,,Sub1
task,mainTask,4,D,449,65,1,548,4,c,m,s,109,1662610,1663158,109,,,,Sub1
task,mainTask,4,D,450,66,1,721,2,c,p,s,109,1665094,1665815,109,,,,Sub1
task,mainTask,4,D,451,67,1,633,8,i,m,s,122,1667701,1668334,122,,,,Sub1
task,mainTask,4,D,452,68,1,946,3,i,p,s,122,1670405,1671351,122,,,,Sub1
task,mainTask,4,D,453,69,1,745,6,i,m,s,122,1673311,1674056,122,,,,Sub1
task,mainTask,4,D,454,70,1,596,9,c,p,s,122,1675982,1676578,122,,,,Sub1
task,mainTask,4,D,455,71,1,635,2,c,p,r,109,1678452,1679087,109,,,,Sub1
task,mainTask,4,D,456,72,1,566,7,c,m,s,122,1681018,1681584,122,,,,Sub1
task,mainTask,4,D,457,73,1,758,2,c,p,s,109,1683507,1684265,109,,,,Sub1
task,mainTask,4,D,458,74,1,788,4,c,m,s,109,1686259,1687047,109,,,,Sub1
task,mainTask,4,D,459,75,1,554,7,c,p,s,122,1688965,1689519,122,,,,Sub1
task,mainTask,4,D,460,76,1,795,1,i,m,s,109,1691346,1692141,109,,,,Sub1
task,mainTask,4,D,461,77,1,552,7,c,p,s,122,1694074,1694626,122,,,,Sub1
task,mainTask,4,D,462,78,1,694,1,i,m,s,109,1696563,1697257,109,,,,Sub1
task,mainTask,4,D,463,79,1,821,4,c,p,s,109,1699249,1700070,109,,,,Sub1
task,mainTask,4,D,464,80,1,1117,9,c,m,s,122,1701997,1703114,122,,,,Sub1
task,mainTask,4,D,465,81,1,754,7,c,p,s,122,1705141,1705895,122,,,,Sub1
task,mainTask,4,D,466,82,1,599,4,c,p,r,109,1707873,1708472,109,,,,Sub1
task,mainTask,4,D,467,83,1,749,7,c,m,s,122,1710545,1711294,122,,,,Sub1
task,mainTask,4,D,468,84,1,697,3,i,p,s,122,1713216,1713913,122,,,,Sub1
task,mainTask,4,D,469,85,1,713,6,i,m,s,122,1715782,1716495,122,,,,Sub1
task,mainTask,4,D,470,86,1,641,4,c,p,s,109,1718332,1718973,109,,,,Sub1
task,mainTask,4,D,471,87,1,721,6,i,m,s,122,1720903,1721624,122,,,,Sub1
task,mainTask,4,D,472,88,1,494,8,i,m,r,122,1723685,1724179,122,,,,Sub1
task,mainTask,4,D,473,89,1,579,7,c,p,s,122,1726019,1726598,122,,,,Sub1
task,mainTask,4,D,474,90,1,623,4,c,m,s,109,1728570,1729193,109,,,,Sub1
task,mainTask,4,D,475,91,1,653,7,c,m,r,122,1731173,1731826,122,,,,Sub1
task,mainTask,4,D,476,92,1,717,2,c,p,s,109,1733689,1734406,109,,,,Sub1
task,mainTask,4,D,477,93,1,833,7,c,m,s,122,1736273,1737106,122,,,,Sub1
task,mainTask,4,D,478,94,1,624,9,c,p,s,122,1739133,1739757,122,,,,Sub1
task,mainTask,4,D,479,95,1,571,2,c,p,r,109,1741682,1742253,109,,,,Sub1
task,mainTask,4,D,480,96,1,792,7,c,p,r,122,1744182,1744974,122,,,,Sub1
task,mainTask,4,D,481,97,1,556,9,c,p,r,122,1746936,1747492,122,,,,Sub1
task,mainTask,4,D,482,98,1,666,4,c,m,s,109,1749376,1750042,109,,,,Sub1
task,mainTask,4,D,483,99,1,895,2,c,p,s,109,1752109,1753004,109,,,,Sub1
task,mainTask,4,D,484,100,1,565,9,c,p,r,122,1754986,1755551,122,,,,Sub1
task,mainTask,4,D,485,101,1,825,7,c,m,s,122,1757428,1758253,122,,,,Sub1
task,mainTask,4,D,486,102,1,601,1,i,m,r,109,1760119,1760720,109,,,,Sub1
task,mainTask,4,D,487,103,1,825,6,i,p,s,109,1762705,1763530,109,,,,Sub1
task,mainTask,4,D,488,104,1,542,2,c,p,r,109,1765517,1766059,109,,,,Sub1
task,mainTask,4,D,489,105,1,739,9,c,m,s,122,1767893,1768632,122,,,,Sub1
task,mainTask,4,D,490,106,1,741,8,i,p,s,109,1770644,1771385,109,,,,Sub1
task,mainTask,4,D,491,107,1,583,1,i,p,r,122,1773380,1773963,122,,,,Sub1
task,mainTask,4,D,492,108,1,577,7,c,p,r,122,1776034,1776611,122,,,,Sub1
task,mainTask,4,D,493,109,1,532,2,c,m,s,109,1778584,1779116,109,,,,Sub1
task,mainTask,4,D,494,110,1,609,9,c,p,s,122,1781055,1781664,122,,,,Sub1
task,mainTask,4,D,495,111,1,525,7,c,p,r,122,1783732,1784257,122,,,,Sub1
task,mainTask,4,D,496,112,1,589,2,c,m,s,109,1786295,1786884,109,,,,Sub1
task,mainTask,4,D,497,113,1,607,1,i,p,s,122,1788767,1789374,122,,,,Sub1
task,mainTask,4,D,498,114,0,764,6,i,m,s,109,1791286,1792050,122,,,,Sub1
task,mainTask,4,D,499,115,1,794,2,c,p,s,109,1793885,1794679,109,,,,Sub1
task,mainTask,4,D,500,116,1,569,7,c,m,s,122,1796681,1797250,122,,,,Sub1
task,mainTask,4,D,501,117,1,600,4,c,m,r,109,1799264,1799864,109,,,,Sub1
task,mainTask,4,D,502,118,1,758,2,c,p,s,109,1801749,1802507,109,,,,Sub1
task,mainTask,4,D,503,119,1,697,7,c,m,s,122,1804498,1805195,122,,,,Sub1
task,mainTask,4,D,504,120,1,589,9,c,p,s,122,1807174,1807763,122,,,,Sub1
task,mainTask,4,D,505,121,1,581,4,c,m,s,109,1809617,1810198,109,,,,Sub1
task,mainTask,4,D,506,122,1,626,7,c,p,s,122,1812089,1812715,122,,,,Sub1
task,mainTask,4,D,507,123,1,880,6,i,m,s,122,1814637,1815517,122,,,,Sub1
task,mainTask,4,D,508,124,1,503,7,c,p,s,122,1817491,1817994,122,,,,Sub1
task,mainTask,4,D,509,125,1,722,9,c,m,s,122,1819966,1820688,122,,,,Sub1
task,mainTask,4,D,510,126,1,648,4,c,m,r,109,1822658,1823306,109,,,,Sub1
task,mainTask,4,D,511,127,1,818,9,c,m,r,122,1825350,1826168,122,,,,Sub1
task,mainTask,4,D,512,128,1,602,2,c,p,s,109,1828041,1828643,109,,,,Sub1
prac1-1,instructions,1,,,,,,,,,,,,,,0,111472,111472,Sub2
prac1-2,instructions,1,,,,,,,,,,,,,,111475,136295,24820,Sub2
task,pracTask,1,,1,1,0,821,8,c,p,n,122,139831,140652,109,,,,Sub2
task,pracTask,1,,2,2,1,910,1,c,p,r,122,142498,143408,122,,,,Sub2
task,pracTask,1,,3,3,1,611,3,c,p,r,122,145353,145964,122,,,,Sub2
task,pracTask,1,,4,4,1,592,7,i,p,r,122,148008,148600,122,,,,Sub2
task,pracTask,1,,5,5,1,764,2,i,p,r,109,150413,151177,109,,,,Sub2
task,pracTask,1,,6,6,1,597,4,i,p,r,109,153156,153753,109,,,,Sub2
task,pracTask,1,,7,7,1,535,1,c,p,r,122,155602,156137,122,,,,Sub2
task,pracTask,1,,8,8,1,624,2,i,p,r,109,158026,158650,109,,,,Sub2
prac1-2,pracFeedback,1,,,,,,,,,,,,,,159941,162658,2717,Sub2
prac2,instructions,1,,,,,,,,,,,,,,162658,174344,11686,Sub2
task,pracTask,1,,1,1,1,540,2,i,m,n,122,177850,178390,122,,,,Sub2
task,pracTask,1,,2,2,1,457,8,c,m,r,109,180432,180889,109,,,,Sub2
task,pracTask,1,,3,3,1,751,9,i,m,r,109,182842,183593,109,,,,Sub2
task,pracTask,1,,4,4,1,517,4,i,m,r,122,185571,186088,122,,,,Sub2
task,pracTask,1,,5,5,1,671,8,c,m,r,109,187961,188632,109,,,,Sub2
task,pracTask,1,,6,6,1,873,2,i,m,r,122,190612,191485,122,,,,Sub2
task,pracTask,1,,7,7,1,598,8,c,m,r,109,193415,194013,109,,,,Sub2
task,pracTask,1,,8,8,1,561,6,c,m,r,109,195975,196536,109,,,,Sub2
prac2,pracFeedback,1,,,,,,,,,,,,,,197868,199159,1291,Sub2
prac3,instructions,1,,,,,,,,,,,,,,199159,226074,26915,Sub2
task,pracTask,1,,1,1,1,639,4,i,m,n,122,229581,230220,122,,,,Sub2
task,pracTask,1,,2,2,0,812,9,i,m,r,122,232206,233018,109,,,,Sub2
task,pracTask,1,,3,3,1,679,6,c,m,r,109,234980,235659,109,,,,Sub2
task,pracTask,1,,4,4,1,693,9,i,p,s,122,237652,238345,122,,,,Sub2
task,pracTask,1,,5,5,1,666,6,c,p,r,109,240258,240924,109,,,,Sub2
task,pracTask,1,,6,6,1,1281,4,i,m,s,122,242919,244200,122,,,,Sub2
task,pracTask,1,,7,7,0,,7,i,m,r,,246207,,109,,,,Sub2
task,pracTask,1,,8,8,0,1117,1,c,m,r,109,249560,250677,122,,,,Sub2
task,pracTask,1,,9,9,1,457,7,i,p,s,122,252479,252936,122,,,,Sub2
task,pracTask,1,,10,10,1,757,4,i,m,s,122,254978,255735,122,,,,Sub2
task,pracTask,1,,11,11,1,870,6,c,p,s,109,257635,258505,109,,,,Sub2
task,pracTask,1,,12,12,1,590,1,c,m,s,122,260365,260955,122,,,,Sub2
task,pracTask,1,,13,13,1,695,6,c,p,s,109,262777,263472,109,,,,Sub2
task,pracTask,1,,14,14,1,546,8,c,p,r,109,265374,265920,109,,,,Sub2
task,pracTask,1,,15,15,1,511,6,c,p,r,109,267879,268390,109,,,,Sub2
task,pracTask,1,,16,16,0,534,4,i,p,r,122,270210,270744,109,,,,Sub2
prac3,pracFeedback,1,,,,,,,,,,,,,,272025,276179,4154,Sub2
prac3,instructions,2,,,,,,,,,,,,,,276179,310235,34056,Sub2
task,pracTask,2,,1,1,0,1107,7,i,m,n,122,313742,314849,109,,,,Sub2
task,pracTask,2,,2,2,1,708,2,i,m,r,122,316608,317316,122,,,,Sub2
task,pracTask,2,,3,3,0,644,8,c,m,r,122,319331,319975,109,,,,Sub2
task,pracTask,2,,4,4,1,775,1,c,p,s,122,321826,322601,122,,,,Sub2
task,pracTask,2,,5,5,1,774,7,i,m,s,109,324468,325242,109,,,,Sub2
task,pracTask,2,,6,6,1,700,4,i,p,s,109,327168,327868,109,,,,Sub2
task,pracTask,2,,7,7,1,683,3,c,p,r,122,329906,330589,122,,,,Sub2
task,pracTask,2,,8,8,1,523,4,i,p,r,109,332597,333120,109,,,,Sub2
task,pracTask,2,,9,9,0,582,8,c,m,s,122,334978,335560,109,,,,Sub2
task,pracTask,2,,10,10,1,622,3,c,m,r,122,337355,337977,122,,,,Sub2
task,pracTask,2,,11,11,1,685,8,c,p,s,109,339757,340442,109,,,,Sub2
task,pracTask,2,,12,12,0,672,1,c,m,s,109,342280,342952,122,,,,Sub2
task,pracTask,2,,13,13,0,884,6,c,m,r,122,348538,349422,109,,,,Sub2
task,pracTask,2,,14,14,0,769,9,i,p,s,109,351235,352004,122,,,,Sub2
task,pracTask,2,,15,15,0,865,7,i,p,r,109,357575,358440,122,,,,Sub2
task,pracTask,2,,16,16,1,698,4,i,p,r,109,360477,361175,109,,,,Sub2
prac3,pracFeedback,2,,,,,,,,,,,,,,362541,364663,2122,Sub2
prac3,instructions,3,,,,,,,,,,,,,,364664,365790,1126,Sub2
task,pracTask,3,,1,1,1,848,9,i,p,n,122,369319,370167,122,,,,Sub2
task,pracTask,3,,2,2,1,798,3,c,p,r,122,372075,372873,122,,,,Sub2
task,pracTask,3,,3,3,1,502,4,i,p,r,109,374663,375165,109,,,,Sub2
task,pracTask,3,,4,4,1,761,7,i,p,r,122,377191,377952,122,,,,Sub2
task,pracTask,3,,5,5,1,727,1,c,p,r,122,379754,380481,122,,,,Sub2
task,pracTask,3,,6,6,1,677,8,c,m,s,109,382359,383036,109,,,,Sub2
task,pracTask,3,,7,7,0,696,4,i,p,s,122,384864,385560,109,,,,Sub2
task,pracTask,3,,8,8,1,483,8,c,m,s,109,387428,387911,109,,,,Sub2
task,pracTask,3,,9,9,1,675,7,i,p,s,122,389796,390471,122,,,,Sub2
task,pracTask,3,,10,10,1,560,4,i,m,s,122,392326,392886,122,,,,Sub2
task,pracTask,3,,11,11,1,891,1,c,p,s,122,394783,395674,122,,,,Sub2
task,pracTask,3,,12,12,1,615,9,i,m,s,109,397558,398173,109,,,,Sub2
task,pracTask,3,,13,13,0,508,3,c,m,r,109,400178,400686,122,,,,Sub2
task,pracTask,3,,14,14,1,935,9,i,m,r,109,402705,403640,109,,,,Sub2
task,pracTask,3,,15,15,1,814,6,c,m,r,109,405603,406417,109,,,,Sub2
task,pracTask,3,,16,16,0,803,3,c,m,r,109,408355,409158,122,,,,Sub2
prac3,pracFeedback,3,,,,,,,,,,,,,,410589,416095,5506,Sub2
prac3,instructions,4,,,,,,,,,,,,,,416095,417362,1267,Sub2
task,pracTask,4,,1,1,1,937,2,i,m,n,122,420907,421844,122,,,,Sub2
task,pracTask,4,,2,2,1,646,4,i,p,s,109,423810,424456,109,,,,Sub2
task,pracTask,4,,3,3,1,588,6,c,p,r,109,426395,426983,109,,,,Sub2
task,pracTask,4,,4,4,1,690,3,c,m,s,122,428948,429638,122,,,,Sub2
task,pracTask,4,,5,5,1,681,6,c,m,r,109,431526,432207,109,,,,Sub2
task,pracTask,4,,6,6,1,661,3,c,p,s,122,434163,434824,122,,,,Sub2
task,pracTask,4,,7,7,1,672,9,i,m,s,109,436823,437495,109,,,,Sub2
task,pracTask,4,,8,8,0,550,4,i,m,r,109,439518,440068,122,,,,Sub2
task,pracTask,4,,9,9,1,777,1,c,p,s,122,441937,442714,122,,,,Sub2
task,pracTask,4,,10,10,1,601,8,c,p,r,109,444620,445221,109,,,,Sub2
task,pracTask,4,,11,11,0,531,9,i,p,r,109,447064,447595,122,,,,Sub2
task,pracTask,4,,12,12,1,523,8,c,p,r,109,449490,450013,109,,,,Sub2
task,pracTask,4,,13,13,1,657,4,i,m,s,122,451926,452583,122,,,,Sub2
task,pracTask,4,,14,14,1,546,9,i,m,r,109,454420,454966,109,,,,Sub2
task,pracTask,4,,15,15,1,544,3,c,m,r,122,456776,457320,122,,,,Sub2
task,pracTask,4,,16,16,1,689,7,i,p,s,122,459233,459922,122,,,,Sub2
prac3,pracFeedback,4,,,,,,,,,,,,,,461241,473189,11948,Sub2
main1,instructions,1,,,,,,,,,,,,,,473190,484818,11628,Sub2
main2,instructions,1,,,,,,,,,,,,,,484821,504903,20082,Sub2
task,mainTask,1,C,1,1,1,926,4,i,m,n,122,508439,509365,122,,,,Sub2
task,mainTask,1,C,2,2,1,610,6,c,m,r,109,511260,511870,109,,,,Sub2
task,mainTask,1,C,3,3,1,601,1,c,m,r,122,513699,514300,122,,,,Sub2
task,mainTask,1,C,4,4,1,619,2,i,m,r,122,516350,516969,122,,,,Sub2
task,mainTask,1,C,5,5,0,862,1,c,p,s,109,518922,519784,122,,,,Sub2
task,mainTask,1,C,6,6,1,792,3,c,p,r,122,521665,522457,122,,,,Sub2
task,mainTask,1,C,7,7,1,739,8,c,p,r,109,524277,525016,109,,,,Sub2
task,mainTask,1,C,8,8,1,661,1,c,p,r,122,527045,527706,122,,,,Sub2
task,mainTask,1,C,9,9,1,848,3,c,p,r,122,529515,530363,122,,,,Sub2
task,mainTask,1,C,10,10,1,526,1,c,p,r,122,532392,532918,122,,,,Sub2
task,mainTask,1,C,11,11,1,567,8,c,m,s,109,534749,535316,109,,,,Sub2
task,mainTask,1,C,12,12,1,634,6,c,m,r,109,537225,537859,109,,,,Sub2
task,mainTask,1,C,13,13,0,581,4,i,m,r,109,539762,540343,122,,,,Sub2
task,mainTask,1,C,14,14,1,609,1,c,m,r,122,542359,542968,122,,,,Sub2
task,mainTask,1,C,15,15,1,616,6,c,p,s,109,545014,545630,109,,,,Sub2
task,mainTask,1,C,16,16,0,648,8,c,m,s,122,547602,548250,109,,,,Sub2
task,mainTask,1,C,17,17,1,863,3,c,p,s,122,550264,551127,122,,,,Sub2
task,mainTask,1,C,18,18,0,676,1,c,m,s,109,552979,553655,122,,,,Sub2
task,mainTask,1,C,19,19,1,771,7,i,m,r,109,555654,556425,109,,,,Sub2
task,mainTask,1,C,20,20,1,704,2,i,m,r,122,558408,559112,122,,,,Sub2
task,mainTask,1,C,21,21,1,583,6,c,m,r,109,561169,561752,109,,,,Sub2
task,mainTask,1,C,22,22,1,605,8,c,m,r,109,563672,564277,109,,,,Sub2
task,mainTask,1,C,23,23,0,587,2,i,m,r,109,566148,566735,122,,,,Sub2
task,mainTask,1,C,24,24,1,673,9,i,m,r,109,568551,569224,109,,,,Sub2
task,mainTask,1,C,25,25,1,611,8,c,m,r,109,571074,571685,109,,,,Sub2
task,mainTask,1,C,26,26,1,859,9,i,p,s,122,573742,574601,122,,,,Sub2
task,mainTask,1,C,27,27,1,707,1,c,p,r,122,576645,577352,122,,,,Sub2
task,mainTask,1,C,28,28,0,503,8,c,p,r,122,579150,579653,109,,,,Sub2
task,mainTask,1,C,29,29,1,719,3,c,p,r,122,581586,582305,122,,,,Sub2
task,mainTask,1,C,30,30,0,709,1,c,m,s,109,584272,584981,122,,,,Sub2
task,mainTask,1,C,31,31,1,718,6,c,p,s,109,586883,587601,109,,,,Sub2
task,mainTask,1,C,32,32,1,600,3,c,p,r,122,589441,590041,122,,,,Sub2
task,mainTask,1,C,33,33,1,505,8,c,p,r,109,591893,592398,109,,,,Sub2
task,mainTask,1,C,34,34,1,775,3,c,m,s,122,594419,595194,122,,,,Sub2
task,mainTask,1,C,35,35,0,1183,1,c,p,s,109,596983,598166,122,,,,Sub2
task,mainTask,1,C,36,36,1,605,8,c,p,r,109,600206,600811,109,,,,Sub2
task,mainTask,1,C,37,37,1,740,9,i,p,r,122,602836,603576,122,,,,Sub2
task,mainTask,1,C,38,38,1,578,4,i,p,r,109,605410,605988,109,,,,Sub2
task,mainTask,1,C,39,39,1,596,7,i,p,r,122,607891,608487,122,,,,Sub2
task,mainTask,1,C,40,40,1,564,8,c,p,r,109,610340,610904,109,,,,Sub2
task,mainTask,1,C,41,41,1,694,6,c,p,r,109,612926,613620,109,,,,Sub2
task,mainTask,1,C,42,42,1,649,1,c,p,r,122,615543,616192,122,,,,Sub2
task,mainTask,1,C,43,43,1,782,8,c,m,s,109,617981,618763,109,,,,Sub2
task,mainTask,1,C,44,44,1,1075,3,c,m,r,122,620748,621823,122,,,,Sub2
task,mainTask,1,C,45,45,1,609,8,c,m,r,109,623664,624273,109,,,,Sub2
task,mainTask,1,C,46,46,1,681,9,i,m,r,109,626274,626955,109,,,,Sub2
task,mainTask,1,C,47,47,1,749,3,c,m,r,122,628924,629673,122,,,,Sub2
task,mainTask,1,C,48,48,1,562,1,c,m,r,122,631475,632037,122,,,,Sub2
task,mainTask,1,C,49,49,1,681,9,i,m,r,109,633900,634581,109,,,,Sub2
task,mainTask,1,C,50,50,1,703,3,c,m,r,122,636569,637272,122,,,,Sub2
task,mainTask,1,C,51,51,1,738,8,c,m,r,109,639189,639927,109,,,,Sub2
task,mainTask,1,C,52,52,1,706,1,c,p,s,122,641943,642649,122,,,,Sub2
task,mainTask,1,C,53,53,1,660,3,c,p,r,122,644594,645254,122,,,,Sub2
task,mainTask,1,C,54,54,1,1114,1,c,m,s,122,647243,648357,122,,,,Sub2
task,mainTask,1,C,55,55,1,716,3,c,m,r,122,650375,651091,122,,,,Sub2
task,mainTask,1,C,56,56,1,709,8,c,m,r,109,652899,653608,109,,,,Sub2
task,mainTask,1,C,57,57,1,658,3,c,m,r,122,655637,656295,122,,,,Sub2
task,mainTask,1,C,58,58,0,1090,1,c,p,s,109,658097,659187,122,,,,Sub2
task,mainTask,1,C,59,59,1,1054,6,c,p,r,109,660964,662018,109,,,,Sub2
task,mainTask,1,C,60,60,1,593,3,c,p,r,122,663878,664471,122,,,,Sub2
task,mainTask,1,C,61,61,1,589,6,c,p,r,109,666400,666989,109,,,,Sub2
task,mainTask,1,C,62,62,1,627,1,c,p,r,122,668949,669576,122,,,,Sub2
task,mainTask,1,C,63,63,1,806,8,c,m,s,109,671603,672409,109,,,,Sub2
task,mainTask,1,C,64,64,1,646,3,c,m,r,122,674255,674901,122,,,,Sub2
task,mainTask,1,C,65,65,1,590,6,c,m,r,109,676952,677542,109,,,,Sub2
task,mainTask,1,C,66,66,1,722,3,c,m,r,122,679458,680180,122,,,,Sub2
task,mainTask,1,C,67,67,1,567,8,c,m,r,109,682006,682573,109,,,,Sub2
task,mainTask,1,C,68,68,1,591,1,c,p,s,122,684549,685140,122,,,,Sub2
task,mainTask,1,C,69,69,1,572,2,i,p,r,109,687059,687631,109,,,,Sub2
task,mainTask,1,C,70,70,1,583,3,c,p,r,122,689493,690076,122,,,,Sub2
task,mainTask,1,C,71,71,1,778,9,i,p,r,122,691907,692685,122,,,,Sub2
task,mainTask,1,C,72,72,1,652,4,i,p,r,109,694634,695286,109,,,,Sub2
task,mainTask,1,C,73,73,1,708,3,c,p,r,122,697234,697942,122,,,,Sub2
task,mainTask,1,C,74,74,1,877,6,c,m,s,109,699810,700687,109,,,,Sub2
task,mainTask,1,C,75,75,1,602,3,c,p,s,122,702564,703166,122,,,,Sub2
task,mainTask,1,C,76,76,0,583,7,i,p,r,109,705023,705606,122,,,,Sub2
task,mainTask,1,C,77,77,1,732,1,c,p,r,122,707562,708294,122,,,,Sub2
task,mainTask,1,C,78,78,1,488,6,c,p,r,109,710239,710727,109,,,,Sub2
task,mainTask,1,C,79,79,1,651,8,c,p,r,109,712600,713251,109,,,,Sub2
task,mainTask,1,C,80,80,1,510,3,c,p,r,122,715107,715617,122,,,,Sub2
task,mainTask,1,C,81,81,1,667,1,c,m,s,122,717440,718107,122,,,,Sub2
task,mainTask,1,C,82,82,1,545,8,c,p,s,109,720084,720629,109,,,,Sub2
task,mainTask,1,C,83,83,1,552,4,i,p,r,109,722593,723145,109,,,,Sub2
task,mainTask,1,C,84,84,1,805,7,i,p,r,122,725013,725818,122,,,,Sub2
task,mainTask,1,C,85,85,1,762,2,i,m,s,122,727723,728485,122,,,,Sub2
task,mainTask,1,C,86,86,1,669,1,c,p,s,122,730395,731064,122,,,,Sub2
task,mainTask,1,C,87,87,1,559,4,i,p,r,109,732951,733510,109,,,,Sub2
task,mainTask,1,C,88,88,1,681,1,c,p,r,122,735461,736142,122,,,,Sub2
task,mainTask,1,C,89,89,1,533,6,c,p,r,109,738043,738576,109,,,,Sub2
task,mainTask,1,C,90,90,1,624,7,i,p,r,122,740447,741071,122,,,,Sub2
task,mainTask,1,C,91,91,1,623,6,c,m,s,109,743078,743701,109,,,,Sub2
task,mainTask,1,C,92,92,1,662,8,c,m,r,109,745618,746280,109,,,,Sub2
task,mainTask,1,C,93,93,1,682,3,c,m,r,122,748081,748763,122,,,,Sub2
task,mainTask,1,C,94,94,0,706,7,i,p,s,109,750644,751350,122,,,,Sub2
task,mainTask,1,C,95,95,1,852,3,c,p,r,122,753282,754134,122,,,,Sub2
task,mainTask,1,C,96,96,1,651,1,c,p,r,122,756079,756730,122,,,,Sub2
task,mainTask,1,C,97,97,1,685,6,c,p,r,109,758597,759282,109,,,,Sub2
task,mainTask,1,C,98,98,1,600,8,c,p,r,109,761152,761752,109,,,,Sub2
task,mainTask,1,C,99,99,1,677,3,c,p,r,122,763642,764319,122,,,,Sub2
task,mainTask,1,C,100,100,1,881,6,c,m,s,109,766190,767071,109,,,,Sub2
task,mainTask,1,C,101,101,1,490,3,c,m,r,122,768986,769476,122,,,,Sub2
task,mainTask,1,C,102,102,1,665,1,c,m,r,122,771374,772039,122,,,,Sub2
task,mainTask,1,C,103,103,1,689,4,i,m,r,122,773904,774593,122,,,,Sub2
task,mainTask,1,C,104,104,1,633,1,c,m,r,122,776599,777232,122,,,,Sub2
task,mainTask,1,C,105,105,1,719,8,c,m,r,109,779248,779967,109,,,,Sub2
task,mainTask,1,C,106,106,1,650,3,c,m,r,122,781879,782529,122,,,,Sub2
task,mainTask,1,C,107,107,1,807,1,c,m,r,122,784540,785347,122,,,,Sub2
task,mainTask,1,C,108,108,1,609,6,c,p,s,109,787254,787863,109,,,,Sub2
task,mainTask,1,C,109,109,0,637,7,i,p,r,109,789735,790372,122,,,,Sub2
task,mainTask,1,C,110,110,1,641,1,c,m,s,122,792427,793068,122,,,,Sub2
task,mainTask,1,C,111,111,1,629,3,c,m,r,122,794956,795585,122,,,,Sub2
task,mainTask,1,C,112,112,0,568,6,c,m,r,122,797389,797957,109,,,,Sub2
task,mainTask,1,C,113,113,1,642,3,c,m,r,122,799800,800442,122,,,,Sub2
task,mainTask,1,C,114,114,1,840,9,i,m,r,109,802288,803128,109,,,,Sub2
task,mainTask,1,C,115,115,1,648,7,i,m,r,109,804924,805572,109,,,,Sub2
task,mainTask,1,C,116,116,1,728,6,c,m,r,109,807541,808269,109,,,,Sub2
task,mainTask,1,C,117,117,1,521,1,c,m,r,122,810270,810791,122,,,,Sub2
task,mainTask,1,C,118,118,1,873,6,c,m,r,109,812807,813680,109,,,,Sub2
task,mainTask,1,C,119,119,1,593,7,i,m,r,109,815651,816244,109,,,,Sub2
task,mainTask,1,C,120,120,1,611,1,c,m,r,122,818146,818757,122,,,,Sub2
task,mainTask,1,C,121,121,1,749,4,i,p,s,109,820587,821336,109,,,,Sub2
task,mainTask,1,C,122,122,1,524,8,c,p,r,109,823300,823824,109,,,,Sub2
task,mainTask,1,C,123,123,1,539,3,c,p,r,122,825698,826237,122,,,,Sub2
task,mainTask,1,C,124,124,1,526,8,c,p,r,109,828040,828566,109,,,,Sub2
task,mainTask,1,C,125,125,1,519,4,i,p,r,109,830574,831093,109,,,,Sub2
task,mainTask,1,C,126,126,1,727,2,i,m,s,122,833086,833813,122,,,,Sub2
task,mainTask,1,C,127,127,1,639,9,i,m,r,109,835764,836403,109,,,,Sub2
task,mainTask,1,C,128,128,1,688,1,c,p,s,122,838398,839086,122,,,,Sub2
feedback,blockBreak,1,C,,,,,,,,,,,,,840545,853501,12956,Sub2
task,mainTask,2,D,129,1,0,,8,c,m,n,,857043,,109,,,,Sub2
task,mainTask,2,D,130,2,1,933,1,c,p,s,122,860450,861383,122,,,,Sub2
task,mainTask,2,D,131,3,1,719,6,c,p,r,109,863203,863922,109,,,,Sub2
task,mainTask,2,D,132,4,1,600,3,c,m,s,122,865775,866375,122,,,,Sub2
task,mainTask,2,D,133,5,1,698,8,c,p,s,109,868288,868986,109,,,,Sub2
task,mainTask,2,D,134,6,1,505,6,c,p,r,109,870970,871475,109,,,,Sub2
task,mainTask,2,D,135,7,1,730,1,c,m,s,122,873493,874223,122,,,,Sub2
task,mainTask,2,D,136,8,0,608,2,i,p,s,122,876071,876679,109,,,,Sub2
task,mainTask,2,D,137,9,1,868,3,c,m,s,122,878491,879359,122,,,,Sub2
task,mainTask,2,D,138,10,1,696,6,c,p,s,109,881366,882062,109,,,,Sub2
task,mainTask,2,D,139,11,1,487,8,c,p,r,109,884016,884503,109,,,,Sub2
task,mainTask,2,D,140,12,0,530,3,c,p,r,109,886418,886948,122,,,,Sub2
task,mainTask,2,D,141,13,0,763,6,c,m,s,122,888950,889713,109,,,,Sub2
task,mainTask,2,D,142,14,1,703,8,c,p,s,109,891719,892422,109,,,,Sub2
task,mainTask,2,D,143,15,1,590,1,c,p,r,122,894351,894941,122,,,,Sub2
task,mainTask,2,D,144,16,0,1085,6,c,m,s,122,896749,897834,109,,,,Sub2
task,mainTask,2,D,145,17,1,874,3,c,p,s,122,899787,900661,122,,,,Sub2
task,mainTask,2,D,146,18,1,890,6,c,m,s,109,902624,903514,109,,,,Sub2
task,mainTask,2,D,147,19,1,611,9,i,m,r,109,905508,906119,109,,,,Sub2
task,mainTask,2,D,148,20,1,648,6,c,p,s,109,908173,908821,109,,,,Sub2
task,mainTask,2,D,149,21,1,589,8,c,m,s,109,910642,911231,109,,,,Sub2
task,mainTask,2,D,150,22,1,537,6,c,p,s,109,913248,913785,109,,,,Sub2
task,mainTask,2,D,151,23,1,551,3,c,m,s,122,915749,916300,122,,,,Sub2
task,mainTask,2,D,152,24,1,584,8,c,p,s,109,918285,918869,109,,,,Sub2
task,mainTask,2,D,153,25,1,723,3,c,m,s,122,920841,921564,122,,,,Sub2
task,mainTask,2,D,154,26,1,659,1,c,p,s,122,923330,923989,122,,,,Sub2
task,mainTask,2,D,155,27,1,599,8,c,m,s,109,925985,926584,109,,,,Sub2
task,mainTask,2,D,156,28,0,739,3,c,p,s,109,928546,929285,122,,,,Sub2
task,mainTask,2,D,157,29,1,531,6,c,p,r,109,931251,931782,109,,,,Sub2
task,mainTask,2,D,158,30,1,578,2,i,m,s,122,933846,934424,122,,,,Sub2
task,mainTask,2,D,159,31,1,599,6,c,p,s,109,936286,936885,109,,,,Sub2
task,mainTask,2,D,160,32,1,581,1,c,m,s,122,938736,939317,122,,,,Sub2
task,mainTask,2,D,161,33,1,578,6,c,m,r,109,941226,941804,109,,,,Sub2
task,mainTask,2,D,162,34,1,544,3,c,p,s,122,943704,944248,122,,,,Sub2
task,mainTask,2,D,163,35,1,544,4,i,m,s,122,946204,946748,122,,,,Sub2
task,mainTask,2,D,164,36,1,701,3,c,p,s,122,948602,949303,122,,,,Sub2
task,mainTask,2,D,165,37,1,585,9,i,m,s,109,951282,951867,109,,,,Sub2
task,mainTask,2,D,166,38,1,503,8,c,p,s,109,953836,954339,109,,,,Sub2
task,mainTask,2,D,167,39,1,573,9,i,p,r,122,956135,956708,122,,,,Sub2
task,mainTask,2,D,168,40,1,519,3,c,p,r,122,958547,959066,122,,,,Sub2
task,mainTask,2,D,169,41,1,631,2,i,m,s,122,961069,961700,122,,,,Sub2
task,mainTask,2,D,170,42,1,549,6,c,p,s,109,963591,964140,109,,,,Sub2
task,mainTask,2,D,171,43,0,541,8,c,m,s,122,966151,966692,109,,,,Sub2
task,mainTask,2,D,172,44,1,635,1,c,m,r,122,968649,969284,122,,,,Sub2
task,mainTask,2,D,173,45,1,545,6,c,p,s,109,971150,971695,109,,,,Sub2
task,mainTask,2,D,174,46,1,572,4,i,m,s,122,973661,974233,122,,,,Sub2
task,mainTask,2,D,175,47,1,632,6,c,m,r,109,976253,976885,109,,,,Sub2
task,mainTask,2,D,176,48,1,628,1,c,m,r,122,978907,979535,122,,,,Sub2
task,mainTask,2,D,177,49,0,589,9,i,p,s,109,981335,981924,122,,,,Sub2
task,mainTask,2,D,178,50,1,683,6,c,p,r,109,983845,984528,109,,,,Sub2
task,mainTask,2,D,179,51,0,689,7,i,m,s,122,986322,987011,109,,,,Sub2
task,mainTask,2,D,180,52,1,726,1,c,m,r,122,989022,989748,122,,,,Sub2
task,mainTask,2,D,181,53,1,597,6,c,p,s,109,991554,992151,109,,,,Sub2
task,mainTask,2,D,182,54,0,552,7,i,m,s,122,993999,994551,109,,,,Sub2
task,mainTask,2,D,183,55,1,473,8,c,m,r,109,996476,996949,109,,,,Sub2
task,mainTask,2,D,184,56,1,579,6,c,p,s,109,998784,999363,109,,,,Sub2
task,mainTask,2,D,185,57,1,918,1,c,p,r,122,1001182,1002100,122,,,,Sub2
task,mainTask,2,D,186,58,1,601,3,c,m,s,122,1003931,1004532,122,,,,Sub2
task,mainTask,2,D,187,59,1,582,8,c,m,r,109,1006358,1006940,109,,,,Sub2
task,mainTask,2,D,188,60,1,689,6,c,p,s,109,1008756,1009445,109,,,,Sub2
task,mainTask,2,D,189,61,1,576,8,c,m,s,109,1011482,1012058,109,,,,Sub2
task,mainTask,2,D,190,62,1,636,2,i,m,r,122,1013953,1014589,122,,,,Sub2
task,mainTask,2,D,191,63,0,551,3,c,p,s,109,1016515,1017066,122,,,,Sub2
task,mainTask,2,D,192,64,1,503,8,c,p,r,109,1018996,1019499,109,,,,Sub2
task,mainTask,2,D,193,65,0,642,6,c,m,s,122,1021434,1022076,109,,,,Sub2
task,mainTask,2,D,194,66,1,640,9,i,m,r,109,1023892,1024532,109,,,,Sub2
task,mainTask,2,D,195,67,1,789,8,c,p,s,109,1026449,1027238,109,,,,Sub2
task,mainTask,2,D,196,68,0,631,7,i,m,s,122,1029203,1029834,109,,,,Sub2
task,mainTask,2,D,197,69,1,892,6,c,p,s,109,1031898,1032790,109,,,,Sub2
task,mainTask,2,D,198,70,1,580,3,c,m,s,122,1034781,1035361,122,,,,Sub2
task,mainTask,2,D,199,71,1,648,1,c,p,s,122,1037369,1038017,122,,,,Sub2
task,mainTask,2,D,200,72,1,440,6,c,p,r,109,1039984,1040424,109,,,,Sub2
task,mainTask,2,D,201,73,1,596,1,c,m,s,122,1042310,1042906,122,,,,Sub2
task,mainTask,2,D,202,74,0,658,3,c,p,s,109,1044753,1045411,122,,,,Sub2
task,mainTask,2,D,203,75,1,613,9,i,m,s,109,1047271,1047884,109,,,,Sub2
task,mainTask,2,D,204,76,1,657,1,c,p,s,122,1049930,1050587,122,,,,Sub2
task,mainTask,2,D,205,77,0,591,4,i,m,s,109,1052587,1053178,122,,,,Sub2
task,mainTask,2,D,206,78,1,629,3,c,m,r,122,1055824,1056453,122,,,,Sub2
task,mainTask,2,D,207,79,1,719,8,c,m,r,109,1058296,1059015,109,,,,Sub2
task,mainTask,2,D,208,80,1,714,1,c,p,s,122,1061056,1061770,122,,,,Sub2
task,mainTask,2,D,209,81,1,673,8,c,m,s,109,1063811,1064484,109,,,,Sub2
task,mainTask,2,D,210,82,0,605,4,i,p,s,122,1066289,1066894,109,,,,Sub2
task,mainTask,2,D,211,83,1,657,6,c,m,s,109,1068745,1069402,109,,,,Sub2
task,mainTask,2,D,212,84,1,768,1,c,p,s,122,1071323,1072091,122,,,,Sub2
task,mainTask,2,D,213,85,1,562,6,c,m,s,109,1074010,1074572,109,,,,Sub2
task,mainTask,2,D,214,86,1,750,3,c,p,s,122,1076457,1077207,122,,,,Sub2
task,mainTask,2,D,215,87,1,612,1,c,p,r,122,1078991,1079603,122,,,,Sub2
task,mainTask,2,D,216,88,1,693,7,i,m,s,109,1081623,1082316,109,,,,Sub2
task,mainTask,2,D,217,89,1,579,3,c,p,s,122,1084134,1084713,122,,,,Sub2
task,mainTask,2,D,218,90,1,601,6,c,m,s,109,1086514,1087115,109,,,,Sub2
task,mainTask,2,D,219,91,1,544,1,c,m,r,122,1088978,1089522,122,,,,Sub2
task,mainTask,2,D,220,92,1,643,8,c,p,s,109,1091330,1091973,109,,,,Sub2
task,mainTask,2,D,221,93,0,735,6,c,m,s,122,1093931,1094666,109,,,,Sub2
task,mainTask,2,D,222,94,1,582,2,i,p,s,109,1096552,1097134,109,,,,Sub2
task,mainTask,2,D,223,95,1,475,7,i,p,r,122,1099134,1099609,122,,,,Sub2
task,mainTask,2,D,224,96,1,872,4,i,m,s,122,1101628,1102500,122,,,,Sub2
task,mainTask,2,D,225,97,0,662,2,i,p,s,122,1104511,1105173,109,,,,Sub2
task,mainTask,2,D,226,98,1,638,9,i,m,s,109,1107071,1107709,109,,,,Sub2
task,mainTask,2,D,227,99,1,595,8,c,p,s,109,1109520,1110115,109,,,,Sub2
task,mainTask,2,D,228,100,1,712,1,c,m,s,122,1112078,1112790,122,,,,Sub2
task,mainTask,2,D,229,101,0,683,3,c,p,s,109,1114683,1115366,122,,,,Sub2
task,mainTask,2,D,230,102,1,866,4,i,m,s,122,1117281,1118147,122,,,,Sub2
task,mainTask,2,D,231,103,0,518,1,c,p,s,109,1120016,1120534,122,,,,Sub2
task,mainTask,2,D,232,104,0,603,9,i,p,r,109,1122499,1123102,122,,,,Sub2
task,mainTask,2,D,233,105,1,719,6,c,m,s,109,1125051,1125770,109,,,,Sub2
task,mainTask,2,D,234,106,1,799,7,i,p,s,122,1127716,1128515,122,,,,Sub2
task,mainTask,2,D,235,107,1,658,9,i,m,s,109,1130355,1131013,109,,,,Sub2
task,mainTask,2,D,236,108,1,608,1,c,p,s,122,1132948,1133556,122,,,,Sub2
task,mainTask,2,D,237,109,1,738,3,c,m,s,122,1135476,1136214,122,,,,Sub2
task,mainTask,2,D,238,110,1,715,6,c,m,r,109,1138218,1138933,109,,,,Sub2
task,mainTask,2,D,239,111,0,587,4,i,p,s,122,1140966,1141553,109,,,,Sub2
task,mainTask,2,D,240,112,1,624,9,i,m,s,109,1143319,1143943,109,,,,Sub2
task,mainTask,2,D,241,113,1,630,6,c,p,s,109,1145901,1146531,109,,,,Sub2
task,mainTask,2,D,242,114,1,634,8,c,m,s,109,1148333,1148967,109,,,,Sub2
task,mainTask,2,D,243,115,1,518,6,c,p,s,109,1150796,1151314,109,,,,Sub2
task,mainTask,2,D,244,116,1,976,1,c,m,s,122,1153139,1154115,122,,,,Sub2
task,mainTask,2,D,245,117,1,697,3,c,p,s,122,1156048,1156745,122,,,,Sub2
task,mainTask,2,D,246,118,1,959,9,i,m,s,109,1158567,1159526,109,,,,Sub2
task,mainTask,2,D,247,119,1,917,3,c,p,s,122,1161488,1162405,122,,,,Sub2
task,mainTask,2,D,248,120,1,554,8,c,m,s,109,1164397,1164951,109,,,,Sub2
task,mainTask,2,D,249,121,1,640,1,c,p,s,122,1166819,1167459,122,,,,Sub2
task,mainTask,2,D,250,122,1,592,8,c,m,s,109,1169395,1169987,109,,,,Sub2
task,mainTask,2,D,251,123,0,610,2,i,p,s,122,1171974,1172584,109,,,,Sub2
task,mainTask,2,D,252,124,1,633,7,i,m,s,109,1174418,1175051,109,,,,Sub2
task,mainTask,2,D,253,125,1,648,6,c,m,r,109,1176936,1177584,109,,,,Sub2
task,mainTask,2,D,254,126,1,606,3,c,m,r,122,1179595,1180201,122,,,,Sub2
task,mainTask,2,D,255,127,1,611,1,c,p,s,122,1182134,1182745,122,,,,Sub2
task,mainTask,2,D,256,128,1,522,6,c,p,r,109,1184664,1185186,109,,,,Sub2
feedback,blockBreak,2,D,,,,,,,,,,,,,1186559,1273268,86709,Sub2
task,mainTask,3,B,257,1,0,785,7,i,m,n,122,1276802,1277587,109,,,,Sub2
task,mainTask,3,B,258,2,0,581,9,i,p,s,109,1279474,1280055,122,,,,Sub2
task,mainTask,3,B,259,3,1,605,2,i,m,s,122,1281897,1282502,122,,,,Sub2
task,mainTask,3,B,260,4,1,731,9,i,p,s,122,1284563,1285294,122,,,,Sub2
task,mainTask,3,B,261,5,1,729,7,i,m,s,109,1287340,1288069,109,,,,Sub2
task,mainTask,3,B,262,6,0,529,2,i,p,s,122,1290042,1290571,109,,,,Sub2
task,mainTask,3,B,263,7,1,721,7,i,m,s,109,1292558,1293279,109,,,,Sub2
task,mainTask,3,B,264,8,1,765,2,i,m,r,122,1295147,1295912,122,,,,Sub2
task,mainTask,3,B,265,9,0,526,7,i,p,s,109,1297888,1298414,122,,,,Sub2
task,mainTask,3,B,266,10,0,623,9,i,m,s,122,1300483,1301106,109,,,,Sub2
task,mainTask,3,B,267,11,1,881,2,i,p,s,109,1302991,1303872,109,,,,Sub2
task,mainTask,3,B,268,12,1,718,1,c,m,s,122,1305717,1306435,122,,,,Sub2
task,mainTask,3,B,269,13,1,810,7,i,p,s,122,1308475,1309285,122,,,,Sub2
task,mainTask,3,B,270,14,1,599,3,c,p,r,122,1311120,1311719,122,,,,Sub2
task,mainTask,3,B,271,15,0,823,2,i,m,s,109,1313566,1314389,122,,,,Sub2
task,mainTask,3,B,272,16,0,632,7,i,m,r,122,1316292,1316924,109,,,,Sub2
task,mainTask,3,B,273,17,1,556,4,i,p,s,109,1318950,1319506,109,,,,Sub2
task,mainTask,3,B,274,18,0,618,9,i,m,s,122,1321482,1322100,109,,,,Sub2
task,mainTask,3,B,275,19,1,632,2,i,p,s,109,1323985,1324617,109,,,,Sub2
task,mainTask,3,B,276,20,0,509,9,i,p,r,109,1326657,1327166,122,,,,Sub2
task,mainTask,3,B,277,21,1,768,2,i,p,r,109,1329092,1329860,109,,,,Sub2
task,mainTask,3,B,278,22,1,619,4,i,p,r,109,1331785,1332404,109,,,,Sub2
task,mainTask,3,B,279,23,0,597,7,i,p,r,109,1334329,1334926,122,,,,Sub2
task,mainTask,3,B,280,24,1,771,4,i,m,s,122,1336836,1337607,122,,,,Sub2
task,mainTask,3,B,281,25,1,615,1,c,m,r,122,1339481,1340096,122,,,,Sub2
task,mainTask,3,B,282,26,1,668,3,c,m,r,122,1342019,1342687,122,,,,Sub2
task,mainTask,3,B,283,27,1,845,9,i,p,s,122,1344488,1345333,122,,,,Sub2
task,mainTask,3,B,284,28,0,627,4,i,m,s,109,1347397,1348024,122,,,,Sub2
task,mainTask,3,B,285,29,1,611,8,c,p,s,109,1350009,1350620,109,,,,Sub2
task,mainTask,3,B,286,30,1,683,3,c,m,s,122,1352464,1353147,122,,,,Sub2
task,mainTask,3,B,287,31,1,703,4,i,p,s,109,1355109,1355812,109,,,,Sub2
task,mainTask,3,B,288,32,0,722,1,c,p,r,109,1357619,1358341,122,,,,Sub2
task,mainTask,3,B,289,33,1,644,9,i,m,s,109,1360325,1360969,109,,,,Sub2
task,mainTask,3,B,290,34,0,521,8,c,p,s,122,1362857,1363378,109,,,,Sub2
task,mainTask,3,B,291,35,1,734,3,c,p,r,122,1365318,1366052,122,,,,Sub2
task,mainTask,3,B,292,36,1,697,7,i,m,s,109,1368063,1368760,109,,,,Sub2
task,mainTask,3,B,293,37,1,644,4,i,p,s,109,1370751,1371395,109,,,,Sub2
task,mainTask,3,B,294,38,1,750,9,i,m,s,109,1373238,1373988,109,,,,Sub2
task,mainTask,3,B,295,39,1,902,7,i,p,s,122,1375950,1376852,122,,,,Sub2
task,mainTask,3,B,296,40,1,947,9,i,m,s,109,1378849,1379796,109,,,,Sub2
task,mainTask,3,B,297,41,1,848,4,i,m,r,122,1381810,1382658,122,,,,Sub2
task,mainTask,3,B,298,42,0,655,9,i,p,s,109,1384597,1385252,122,,,,Sub2
task,mainTask,3,B,299,43,1,960,2,i,m,s,122,1387239,1388199,122,,,,Sub2
task,mainTask,3,B,300,44,0,637,9,i,p,s,109,1390007,1390644,122,,,,Sub2
task,mainTask,3,B,301,45,1,689,7,i,m,s,109,1392691,1393380,109,,,,Sub2
task,mainTask,3,B,302,46,1,942,2,i,p,s,109,1395238,1396180,109,,,,Sub2
task,mainTask,3,B,303,47,1,935,7,i,m,s,109,1398020,1398955,109,,,,Sub2
task,mainTask,3,B,304,48,1,890,9,i,p,s,122,1400967,1401857,122,,,,Sub2
task,mainTask,3,B,305,49,1,1219,2,i,m,s,122,1403921,1405140,122,,,,Sub2
task,mainTask,3,B,306,50,1,644,4,i,p,s,109,1407041,1407685,109,,,,Sub2
task,mainTask,3,B,307,51,1,1065,7,i,m,s,109,1409531,1410596,109,,,,Sub2
task,mainTask,3,B,308,52,1,649,4,i,p,s,109,1412401,1413050,109,,,,Sub2
task,mainTask,3,B,309,53,1,599,2,i,p,r,109,1415007,1415606,109,,,,Sub2
task,mainTask,3,B,310,54,1,700,1,c,m,s,122,1417640,1418340,122,,,,Sub2
task,mainTask,3,B,311,55,1,896,7,i,p,s,122,1420210,1421106,122,,,,Sub2
task,mainTask,3,B,312,56,1,844,8,c,m,s,109,1422960,1423804,109,,,,Sub2
task,mainTask,3,B,313,57,1,688,2,i,m,r,122,1425664,1426352,122,,,,Sub2
task,mainTask,3,B,314,58,1,921,7,i,p,s,122,1428168,1429089,122,,,,Sub2
task,mainTask,3,B,315,59,1,915,4,i,m,s,122,1430890,1431805,122,,,,Sub2
task,mainTask,3,B,316,60,1,661,7,i,p,s,122,1433631,1434292,122,,,,Sub2
task,mainTask,3,B,317,61,1,648,2,i,m,s,122,1436248,1436896,122,,,,Sub2
task,mainTask,3,B,318,62,1,718,1,c,p,s,122,1438945,1439663,122,,,,Sub2
task,mainTask,3,B,319,63,1,661,8,c,m,s,109,1441566,1442227,109,,,,Sub2
task,mainTask,3,B,320,64,1,744,9,i,p,s,122,1444253,1444997,122,,,,Sub2
task,mainTask,3,B,321,65,1,587,3,c,p,r,122,1446881,1447468,122,,,,Sub2
task,mainTask,3,B,322,66,1,1020,4,i,m,s,122,1449384,1450404,122,,,,Sub2
task,mainTask,3,B,323,67,1,855,2,i,p,s,109,1452423,1453278,109,,,,Sub2
task,mainTask,3,B,324,68,1,806,4,i,m,s,122,1455263,1456069,122,,,,Sub2
task,mainTask,3,B,325,69,1,599,1,c,m,r,122,1457963,1458562,122,,,,Sub2
task,mainTask,3,B,326,70,1,1115,3,c,p,s,122,1460484,1461599,122,,,,Sub2
task,mainTask,3,B,327,71,1,650,7,i,p,r,122,1463562,1464212,122,,,,Sub2
task,mainTask,3,B,328,72,1,883,2,i,m,s,122,1466132,1467015,122,,,,Sub2
task,mainTask,3,B,329,73,1,555,4,i,p,s,109,1468768,1469323,109,,,,Sub2
task,mainTask,3,B,330,74,1,717,8,c,m,s,109,1471142,1471859,109,,,,Sub2
task,mainTask,3,B,331,75,1,822,7,i,p,s,122,1473711,1474533,122,,,,Sub2
task,mainTask,3,B,332,76,0,729,9,i,p,r,109,1476344,1477073,122,,,,Sub2
task,mainTask,3,B,333,77,1,949,3,c,m,s,122,1479074,1480023,122,,,,Sub2
task,mainTask,3,B,334,78,1,530,8,c,p,s,109,1481917,1482447,109,,,,Sub2
task,mainTask,3,B,335,79,1,1100,9,i,m,s,109,1484294,1485394,109,,,,Sub2
task,mainTask,3,B,336,80,1,727,2,i,p,s,109,1487406,1488133,109,,,,Sub2
task,mainTask,3,B,337,81,1,549,4,i,p,r,109,1490026,1490575,109,,,,Sub2
task,mainTask,3,B,338,82,0,536,7,i,m,s,122,1492464,1493000,109,,,,Sub2
task,mainTask,3,B,339,83,1,567,4,i,p,s,109,1494920,1495487,109,,,,Sub2
task,mainTask,3,B,340,84,1,599,1,c,m,s,122,1497483,1498082,122,,,,Sub2
task,mainTask,3,B,341,85,1,532,2,i,p,s,109,1499907,1500439,109,,,,Sub2
task,mainTask,3,B,342,86,1,589,8,c,p,r,109,1502391,1502980,109,,,,Sub2
task,mainTask,3,B,343,87,1,626,1,c,m,s,122,1504806,1505432,122,,,,Sub2
task,mainTask,3,B,344,88,1,726,6,c,m,r,109,1507281,1508007,109,,,,Sub2
task,mainTask,3,B,345,89,1,752,9,i,p,s,122,1509930,1510682,122,,,,Sub2
task,mainTask,3,B,346,90,1,1090,2,i,m,s,122,1512551,1513641,122,,,,Sub2
task,mainTask,3,B,347,91,1,555,1,c,m,r,122,1515578,1516133,122,,,,Sub2
task,mainTask,3,B,348,92,0,576,3,c,p,s,109,1518132,1518708,122,,,,Sub2
task,mainTask,3,B,349,93,0,618,9,i,m,s,122,1520711,1521329,109,,,,Sub2
task,mainTask,3,B,350,94,1,1136,4,i,m,r,122,1523222,1524358,122,,,,Sub2
task,mainTask,3,B,351,95,1,946,9,i,p,s,122,1526208,1527154,122,,,,Sub2
task,mainTask,3,B,352,96,0,624,4,i,m,s,109,1529145,1529769,122,,,,Sub2
task,mainTask,3,B,353,97,1,579,6,c,m,r,109,1531987,1532566,109,,,,Sub2
task,mainTask,3,B,354,98,1,874,2,i,p,s,109,1534511,1535385,109,,,,Sub2
task,mainTask,3,B,355,99,1,730,4,i,m,s,122,1537203,1537933,122,,,,Sub2
task,mainTask,3,B,356,100,1,850,1,c,m,r,122,1539863,1540713,122,,,,Sub2
task,mainTask,3,B,357,101,1,556,4,i,m,r,122,1542732,1543288,122,,,,Sub2
task,mainTask,3,B,358,102,0,674,9,i,p,s,109,1545137,1545811,122,,,,Sub2
task,mainTask,3,B,359,103,1,742,4,i,m,s,122,1547804,1548546,122,,,,Sub2
task,mainTask,3,B,360,104,1,636,6,c,p,s,109,1550551,1551187,109,,,,Sub2
task,mainTask,3,B,361,105,1,699,7,i,p,r,122,1553039,1553738,122,,,,Sub2
task,mainTask,3,B,362,106,1,803,2,i,p,r,109,1555550,1556353,109,,,,Sub2
task,mainTask,3,B,363,107,1,739,4,i,m,s,122,1558208,1558947,122,,,,Sub2
task,mainTask,3,B,364,108,1,606,1,c,m,r,122,1560808,1561414,122,,,,Sub2
task,mainTask,3,B,365,109,1,693,4,i,p,s,109,1563379,1564072,109,,,,Sub2
task,mainTask,3,B,366,110,1,591,7,i,m,s,109,1565906,1566497,109,,,,Sub2
task,mainTask,3,B,367,111,0,771,9,i,p,s,109,1568447,1569218,122,,,,Sub2
task,mainTask,3,B,368,112,1,743,7,i,m,s,109,1571196,1571939,109,,,,Sub2
task,mainTask,3,B,369,113,1,794,3,c,p,s,122,1573920,1574714,122,,,,Sub2
task,mainTask,3,B,370,114,1,751,2,i,m,s,122,1576546,1577297,122,,,,Sub2
task,mainTask,3,B,371,115,1,635,4,i,m,r,122,1579288,1579923,122,,,,Sub2
task,mainTask,3,B,372,116,0,601,7,i,p,s,109,1581754,1582355,122,,,,Sub2
task,mainTask,3,B,373,117,1,782,2,i,m,s,122,1584191,1584973,122,,,,Sub2
task,mainTask,3,B,374,118,0,846,7,i,m,r,122,1586987,1587833,109,,,,Sub2
task,mainTask,3,B,375,119,1,896,9,i,p,s,122,1589721,1590617,122,,,,Sub2
task,mainTask,3,B,376,120,1,993,7,i,p,r,122,1592499,1593492,122,,,,Sub2
task,mainTask,3,B,377,121,0,1022,2,i,m,s,109,1595338,1596360,122,,,,Sub2
task,mainTask,3,B,378,122,1,1070,7,i,p,s,122,1598246,1599316,122,,,,Sub2
task,mainTask,3,B,379,123,1,957,1,c,m,s,122,1601321,1602278,122,,,,Sub2
task,mainTask,3,B,380,124,1,1166,2,i,p,s,109,1604309,1605475,109,,,,Sub2
task,mainTask,3,B,381,125,1,743,1,c,m,s,122,1607347,1608090,122,,,,Sub2
task,mainTask,3,B,382,126,1,708,4,i,p,s,109,1609887,1610595,109,,,,Sub2
task,mainTask,3,B,383,127,1,747,7,i,m,s,109,1612552,1613299,109,,,,Sub2
task,mainTask,3,B,384,128,1,795,9,i,p,s,122,1615351,1616146,122,,,,Sub2
feedback,blockBreak,3,B,,,,,,,,,,,,,1617542,1654078,36536,Sub2
task,mainTask,4,A,385,1,1,946,7,i,p,n,122,1657599,1658545,122,,,,Sub2
task,mainTask,4,A,386,2,0,569,4,i,p,r,122,1660472,1661041,109,,,,Sub2
task,mainTask,4,A,387,3,1,812,7,i,p,r,122,1663018,1663830,122,,,,Sub2
task,mainTask,4,A,388,4,0,800,4,i,m,s,109,1665845,1666645,122,,,,Sub2
task,mainTask,4,A,389,5,1,935,7,i,m,r,109,1669210,1670145,109,,,,Sub2
task,mainTask,4,A,390,6,1,635,2,i,m,r,122,1672118,1672753,122,,,,Sub2
task,mainTask,4,A,391,7,1,838,1,c,p,s,122,1674732,1675570,122,,,,Sub2
task,mainTask,4,A,392,8,1,702,4,i,p,r,109,1677379,1678081,109,,,,Sub2
task,mainTask,4,A,393,9,1,617,2,i,p,r,109,1679836,1680453,109,,,,Sub2
task,mainTask,4,A,394,10,1,793,9,i,p,r,122,1682264,1683057,122,,,,Sub2
task,mainTask,4,A,395,11,1,815,2,i,m,s,122,1684869,1685684,122,,,,Sub2
task,mainTask,4,A,396,12,1,675,4,i,p,s,109,1687631,1688306,109,,,,Sub2
task,mainTask,4,A,397,13,1,710,9,i,p,r,122,1690308,1691018,122,,,,Sub2
task,mainTask,4,A,398,14,1,824,4,i,p,r,109,1693014,1693838,109,,,,Sub2
task,mainTask,4,A,399,15,1,756,9,i,p,r,122,1695711,1696467,122,,,,Sub2
task,mainTask,4,A,400,16,1,659,8,c,p,r,109,1698474,1699133,109,,,,Sub2
task,mainTask,4,A,401,17,1,748,9,i,m,s,109,1701154,1701902,109,,,,Sub2
task,mainTask,4,A,402,18,1,683,2,i,p,s,109,1703865,1704548,109,,,,Sub2
task,mainTask,4,A,403,19,1,683,4,i,p,r,109,1706486,1707169,109,,,,Sub2
task,mainTask,4,A,404,20,0,803,9,i,m,s,122,1708996,1709799,109,,,,Sub2
task,mainTask,4,A,405,21,1,520,2,i,p,s,109,1711688,1712208,109,,,,Sub2
task,mainTask,4,A,406,22,1,827,7,i,p,r,122,1714186,1715013,122,,,,Sub2
task,mainTask,4,A,407,23,1,605,8,c,p,r,109,1716851,1717456,109,,,,Sub2
task,mainTask,4,A,408,24,1,786,6,c,m,s,109,1719272,1720058,109,,,,Sub2
task,mainTask,4,A,409,25,1,632,4,i,p,s,109,1721847,1722479,109,,,,Sub2
task,mainTask,4,A,410,26,1,652,9,i,p,r,122,1724485,1725137,122,,,,Sub2
task,mainTask,4,A,411,27,1,635,1,c,m,s,122,1727125,1727760,122,,,,Sub2
task,mainTask,4,A,412,28,1,608,7,i,m,r,109,1729702,1730310,109,,,,Sub2
task,mainTask,4,A,413,29,1,1019,2,i,m,r,122,1732309,1733328,122,,,,Sub2
task,mainTask,4,A,414,30,1,687,8,c,m,r,109,1735041,1735728,109,,,,Sub2
task,mainTask,4,A,415,31,1,643,3,c,m,r,122,1737579,1738222,122,,,,Sub2
task,mainTask,4,A,416,32,0,564,7,i,m,r,122,1740074,1740638,109,,,,Sub2
task,mainTask,4,A,417,33,1,744,9,i,m,r,109,1742429,1743173,109,,,,Sub2
task,mainTask,4,A,418,34,1,719,7,i,m,r,109,1744989,1745708,109,,,,Sub2
task,mainTask,4,A,419,35,1,578,2,i,m,r,122,1747614,1748192,122,,,,Sub2
task,mainTask,4,A,420,36,1,610,7,i,m,r,109,1750043,1750653,109,,,,Sub2
task,mainTask,4,A,421,37,1,577,9,i,m,r,109,1752658,1753235,109,,,,Sub2
task,mainTask,4,A,422,38,1,564,7,i,m,r,109,1755113,1755677,109,,,,Sub2
task,mainTask,4,A,423,39,1,594,9,i,m,r,109,1757617,1758211,109,,,,Sub2
task,mainTask,4,A,424,40,1,508,2,i,m,r,122,1760254,1760762,122,,,,Sub2
task,mainTask,4,A,425,41,1,629,4,i,p,s,109,1762614,1763243,109,,,,Sub2
task,mainTask,4,A,426,42,1,630,3,c,p,r,122,1765036,1765666,122,,,,Sub2
task,mainTask,4,A,427,43,1,650,4,i,p,r,109,1767588,1768238,109,,,,Sub2
task,mainTask,4,A,428,44,0,689,2,i,p,r,122,1770134,1770823,109,,,,Sub2
task,mainTask,4,A,429,45,1,785,7,i,p,r,122,1772720,1773505,122,,,,Sub2
task,mainTask,4,A,430,46,1,651,4,i,p,r,109,1775312,1775963,109,,,,Sub2
task,mainTask,4,A,431,47,1,571,2,i,p,r,109,1777868,1778439,109,,,,Sub2
task,mainTask,4,A,432,48,1,567,6,c,p,r,109,1780414,1780981,109,,,,Sub2
task,mainTask,4,A,433,49,1,573,7,i,p,r,122,1782868,1783441,122,,,,Sub2
task,mainTask,4,A,434,50,1,854,1,c,m,s,122,1785417,1786271,122,,,,Sub2
task,mainTask,4,A,435,51,1,654,4,i,m,r,122,1788084,1788738,122,,,,Sub2
task,mainTask,4,A,436,52,1,745,8,c,m,r,109,1790524,1791269,109,,,,Sub2
task,mainTask,4,A,437,53,1,769,2,i,m,r,122,1793254,1794023,122,,,,Sub2
task,mainTask,4,A,438,54,1,742,7,i,m,r,109,1796041,1796783,109,,,,Sub2
task,mainTask,4,A,439,55,1,671,8,c,p,s,109,1798785,1799456,109,,,,Sub2
task,mainTask,4,A,440,56,1,612,3,c,p,r,122,1801483,1802095,122,,,,Sub2
task,mainTask,4,A,441,57,1,690,4,i,p,r,109,1804050,1804740,109,,,,Sub2
task,mainTask,4,A,442,58,1,643,2,i,p,r,109,1806686,1807329,109,,,,Sub2
task,mainTask,4,A,443,59,1,643,9,i,p,r,122,1809261,1809904,122,,,,Sub2
task,mainTask,4,A,444,60,1,696,7,i,p,r,122,1811818,1812514,122,,,,Sub2
task,mainTask,4,A,445,61,1,686,2,i,p,r,109,1814321,1815007,109,,,,Sub2
task,mainTask,4,A,446,62,1,736,3,c,m,s,122,1816941,1817677,122,,,,Sub2
task,mainTask,4,A,447,63,1,633,2,i,m,r,122,1819686,1820319,122,,,,Sub2
task,mainTask,4,A,448,64,0,627,4,i,m,r,109,1822272,1822899,122,,,,Sub2
task,mainTask,4,A,449,65,1,551,9,i,m,r,109,1824783,1825334,109,,,,Sub2
task,mainTask,4,A,450,66,1,512,7,i,m,r,109,1827203,1827715,109,,,,Sub2
task,mainTask,4,A,451,67,1,626,9,i,m,r,109,1829745,1830371,109,,,,Sub2
task,mainTask,4,A,452,68,1,948,2,i,p,s,109,1832394,1833342,109,,,,Sub2
task,mainTask,4,A,453,69,1,553,3,c,m,s,122,1835222,1835775,122,,,,Sub2
task,mainTask,4,A,454,70,1,576,1,c,m,r,122,1837603,1838179,122,,,,Sub2
task,mainTask,4,A,455,71,1,614,4,i,p,s,109,1840138,1840752,109,,,,Sub2
task,mainTask,4,A,456,72,1,690,1,c,p,r,122,1842572,1843262,122,,,,Sub2
task,mainTask,4,A,457,73,1,690,2,i,p,r,109,1845231,1845921,109,,,,Sub2
task,mainTask,4,A,458,74,1,783,9,i,m,s,109,1847835,1848618,109,,,,Sub2
task,mainTask,4,A,459,75,1,677,2,i,m,r,122,1850481,1851158,122,,,,Sub2
task,mainTask,4,A,460,76,1,609,8,c,m,r,109,1853183,1853792,109,,,,Sub2
task,mainTask,4,A,461,77,1,558,4,i,m,r,122,1855812,1856370,122,,,,Sub2
task,mainTask,4,A,462,78,1,823,9,i,m,r,109,1858138,1858961,109,,,,Sub2
task,mainTask,4,A,463,79,1,645,7,i,m,r,109,1860968,1861613,109,,,,Sub2
task,mainTask,4,A,464,80,1,595,2,i,m,r,122,1863644,1864239,122,,,,Sub2
task,mainTask,4,A,465,81,1,561,8,c,m,r,109,1866061,1866622,109,,,,Sub2
task,mainTask,4,A,466,82,1,574,3,c,m,r,122,1868424,1868998,122,,,,Sub2
task,mainTask,4,A,467,83,1,569,2,i,m,r,122,1870807,1871376,122,,,,Sub2
task,mainTask,4,A,468,84,0,566,7,i,m,r,122,1873193,1873759,109,,,,Sub2
task,mainTask,4,A,469,85,1,657,4,i,p,s,109,1875714,1876371,109,,,,Sub2
task,mainTask,4,A,470,86,1,608,8,c,p,r,109,1878313,1878921,109,,,,Sub2
task,mainTask,4,A,471,87,1,566,4,i,p,r,109,1880981,1881547,109,,,,Sub2
task,mainTask,4,A,472,88,1,558,7,i,p,r,122,1883472,1884030,122,,,,Sub2
task,mainTask,4,A,473,89,0,513,9,i,p,r,109,1885997,1886510,122,,,,Sub2
task,mainTask,4,A,474,90,1,618,1,c,p,r,122,1888573,1889191,122,,,,Sub2
task,mainTask,4,A,475,91,1,672,9,i,p,r,122,1891120,1891792,122,,,,Sub2
task,mainTask,4,A,476,92,1,571,8,c,p,r,109,1893628,1894199,109,,,,Sub2
task,mainTask,4,A,477,93,1,488,3,c,p,r,122,1896230,1896718,122,,,,Sub2
task,mainTask,4,A,478,94,1,722,6,c,m,s,109,1898582,1899304,109,,,,Sub2
task,mainTask,4,A,479,95,1,877,1,c,p,s,122,1901276,1902153,122,,,,Sub2
task,mainTask,4,A,480,96,1,760,9,i,p,r,122,1904152,1904912,122,,,,Sub2
task,mainTask,4,A,481,97,1,596,1,c,p,r,122,1906762,1907358,122,,,,Sub2
task,mainTask,4,A,482,98,1,733,4,i,p,r,109,1909377,1910110,109,,,,Sub2
task,mainTask,4,A,483,99,1,622,2,i,p,r,109,1912134,1912756,109,,,,Sub2
task,mainTask,4,A,484,100,1,636,3,c,p,r,122,1914611,1915247,122,,,,Sub2
task,mainTask,4,A,485,101,1,622,2,i,p,r,109,1917170,1917792,109,,,,Sub2
task,mainTask,4,A,486,102,1,753,7,i,p,r,122,1919742,1920495,122,,,,Sub2
task,mainTask,4,A,487,103,1,651,9,i,m,s,109,1922388,1923039,109,,,,Sub2
task,mainTask,4,A,488,104,1,608,4,i,m,r,122,1924854,1925462,122,,,,Sub2
task,mainTask,4,A,489,105,0,717,7,i,p,s,109,1927383,1928100,122,,,,Sub2
task,mainTask,4,A,490,106,1,678,4,i,p,r,109,1929881,1930559,109,,,,Sub2
task,mainTask,4,A,491,107,1,849,7,i,m,s,109,1932494,1933343,109,,,,Sub2
task,mainTask,4,A,492,108,1,524,9,i,m,r,109,1935250,1935774,109,,,,Sub2
task,mainTask,4,A,493,109,1,1061,2,i,m,r,122,1937778,1938839,122,,,,Sub2
task,mainTask,4,A,494,110,1,523,3,c,m,r,122,1940628,1941151,122,,,,Sub2
task,mainTask,4,A,495,111,1,501,2,i,m,r,122,1943110,1943611,122,,,,Sub2
task,mainTask,4,A,496,112,0,557,9,i,p,s,109,1945534,1946091,122,,,,Sub2
task,mainTask,4,A,497,113,0,639,7,i,m,s,122,1948127,1948766,109,,,,Sub2
task,mainTask,4,A,498,114,1,638,8,c,m,r,109,1950710,1951348,109,,,,Sub2
task,mainTask,4,A,499,115,1,785,6,c,p,s,109,1953181,1953966,109,,,,Sub2
task,mainTask,4,A,500,116,1,608,2,i,m,s,122,1955931,1956539,122,,,,Sub2
task,mainTask,4,A,501,117,1,580,7,i,m,r,109,1958584,1959164,109,,,,Sub2
task,mainTask,4,A,502,118,1,847,2,i,m,r,122,1961186,1962033,122,,,,Sub2
task,mainTask,4,A,503,119,1,503,4,i,m,r,122,1963829,1964332,122,,,,Sub2
task,mainTask,4,A,504,120,1,475,2,i,m,r,122,1966351,1966826,122,,,,Sub2
task,mainTask,4,A,505,121,0,564,7,i,m,r,122,1968884,1969448,109,,,,Sub2
task,mainTask,4,A,506,122,1,734,4,i,p,s,109,1971345,1972079,109,,,,Sub2
task,mainTask,4,A,507,123,1,787,9,i,p,r,122,1974065,1974852,122,,,,Sub2
task,mainTask,4,A,508,124,1,756,2,i,p,r,109,1976620,1977376,109,,,,Sub2
task,mainTask,4,A,509,125,1,571,1,c,p,r,122,1979293,1979864,122,,,,Sub2
task,mainTask,4,A,510,126,1,749,9,i,m,s,109,1981705,1982454,109,,,,Sub2
task,mainTask,4,A,511,127,1,649,4,i,m,r,122,1984247,1984896,122,,,,Sub2
task,mainTask,4,A,512,128,1,701,2,i,m,r,122,1986831,1987532,122,,,,Sub2
prac1-1,instructions,1,,,,,,,,,,,,,,0,48776,48776,Sub3
prac1-2,instructions,1,,,,,,,,,,,,,,48779,100975,52196,Sub3
task,pracTask,1,,1,1,0,,9,i,p,n,,104558,,122,,,,Sub3
task,pracTask,1,,2,2,1,1390,6,c,p,r,109,107949,109339,109,,,,Sub3
task,pracTask,1,,3,3,1,1032,3,c,p,r,122,111354,112386,122,,,,Sub3
task,pracTask,1,,4,4,0,860,9,i,p,r,109,114479,115339,122,,,,Sub3
task,pracTask,1,,5,5,0,,8,c,p,r,,117214,,109,,,,Sub3
task,pracTask,1,,6,6,1,1000,3,c,p,r,122,120589,121589,122,,,,Sub3
task,pracTask,1,,7,7,1,1234,4,i,p,r,109,123636,124870,109,,,,Sub3
task,pracTask,1,,8,8,1,1359,7,i,p,r,122,126760,128119,122,,,,Sub3
prac1-2,pracFeedback,1,,,,,,,,,,,,,,129683,133276,3593,Sub3
prac1-1,instructions,2,,,,,,,,,,,,,,133292,142925,9633,Sub3
prac1-2,instructions,2,,,,,,,,,,,,,,142927,193213,50286,Sub3
task,pracTask,2,,1,1,1,953,8,c,p,n,109,196760,197713,109,,,,Sub3
task,pracTask,2,,2,2,1,1063,1,c,p,r,122,199776,200839,122,,,,Sub3
task,pracTask,2,,3,3,0,829,9,i,p,r,109,202916,203745,122,,,,Sub3
task,pracTask,2,,4,4,1,1063,7,i,p,r,122,205698,206761,122,,,,Sub3
task,pracTask,2,,5,5,1,1063,4,i,p,r,109,208698,209761,109,,,,Sub3
task,pracTask,2,,6,6,1,782,3,c,p,r,122,211729,212511,122,,,,Sub3
task,pracTask,2,,7,7,0,750,7,i,p,r,109,214542,215292,122,,,,Sub3
task,pracTask,2,,8,8,1,921,3,c,p,r,122,217277,218198,122,,,,Sub3
prac1-2,pracFeedback,2,,,,,,,,,,,,,,219791,226682,6891,Sub3
prac1-1,instructions,3,,,,,,,,,,,,,,226682,230558,3876,Sub3
prac1-2,instructions,3,,,,,,,,,,,,,,230559,234641,4082,Sub3
task,pracTask,3,,1,1,1,1375,9,i,p,n,122,238198,239573,122,,,,Sub3
task,pracTask,3,,2,2,1,1031,4,i,p,r,109,241464,242495,109,,,,Sub3
task,pracTask,3,,3,3,1,1031,8,c,p,r,109,244651,245682,109,,,,Sub3
task,pracTask,3,,4,4,1,1032,7,i,p,r,122,247651,248683,122,,,,Sub3
task,pracTask,3,,5,5,1,766,6,c,p,r,109,250823,251589,109,,,,Sub3
task,pracTask,3,,6,6,1,862,1,c,p,r,122,253543,254405,122,,,,Sub3
task,pracTask,3,,7,7,1,813,7,i,p,r,122,256354,257167,122,,,,Sub3
task,pracTask,3,,8,8,1,843,8,c,p,r,109,259058,259901,109,,,,Sub3
prac1-2,pracFeedback,3,,,,,,,,,,,,,,261278,264150,2872,Sub3
prac2,instructions,1,,,,,,,,,,,,,,264150,331495,67345,Sub3
task,pracTask,1,,1,1,1,1094,6,c,m,n,109,335042,336136,109,,,,Sub3
task,pracTask,1,,2,2,1,1282,9,i,m,r,109,337948,339230,109,,,,Sub3
task,pracTask,1,,3,3,1,829,1,c,m,r,122,341229,342058,122,,,,Sub3
task,pracTask,1,,4,4,0,984,4,i,m,r,109,344105,345089,122,,,,Sub3
task,pracTask,1,,5,5,1,1157,3,c,m,r,122,347073,348230,122,,,,Sub3
task,pracTask,1,,6,6,1,922,2,i,m,r,122,350292,351214,122,,,,Sub3
task,pracTask,1,,7,7,1,984,9,i,m,r,109,353151,354135,109,,,,Sub3
task,pracTask,1,,8,8,1,1141,6,c,m,r,109,356042,357183,109,,,,Sub3
prac2,pracFeedback,1,,,,,,,,,,,,,,358683,361308,2625,Sub3
prac3,instructions,1,,,,,,,,,,,,,,361308,376370,15062,Sub3
task,pracTask,1,,1,1,0,,9,i,m,n,,379915,,109,,,,Sub3
task,pracTask,1,,2,2,1,1234,4,i,m,r,122,383182,384416,122,,,,Sub3
task,pracTask,1,,3,3,1,812,9,i,m,r,109,386448,387260,109,,,,Sub3
task,pracTask,1,,4,4,1,1125,3,c,p,s,122,389119,390244,122,,,,Sub3
task,pracTask,1,,5,5,1,1265,6,c,p,r,109,392307,393572,109,,,,Sub3
task,pracTask,1,,6,6,1,797,1,c,p,r,122,395557,396354,122,,,,Sub3
task,pracTask,1,,7,7,0,672,3,c,m,s,109,398400,399072,122,,,,Sub3
task,pracTask,1,,8,8,1,1453,1,c,p,s,122,400900,402353,122,,,,Sub3
task,pracTask,1,,9,9,0,1297,9,i,p,r,109,404197,405494,122,,,,Sub3
task,pracTask,1,,10,10,0,,4,i,p,r,,407435,,109,,,,Sub3
task,pracTask,1,,11,11,1,985,1,c,m,s,122,410697,411682,122,,,,Sub3
task,pracTask,1,,12,12,0,1219,2,i,m,r,109,413650,414869,122,,,,Sub3
task,pracTask,1,,13,13,0,,4,i,m,r,,416822,,122,,,,Sub3
task,pracTask,1,,14,14,1,937,1,c,p,s,122,420088,421025,122,,,,Sub3
task,pracTask,1,,15,15,1,1406,4,i,m,s,122,422994,424400,122,,,,Sub3
task,pracTask,1,,16,16,0,,8,c,p,s,,426229,,109,,,,Sub3
prac3,pracFeedback,1,,,,,,,,,,,,,,429057,431541,2484,Sub3
prac3,instructions,2,,,,,,,,,,,,,,431541,433732,2191,Sub3
task,pracTask,2,,1,1,0,,2,i,p,n,,437259,,109,,,,Sub3
task,pracTask,2,,2,2,1,985,8,c,m,s,109,440510,441495,109,,,,Sub3
task,pracTask,2,,3,3,0,1235,4,i,m,r,109,443573,444808,122,,,,Sub3
task,pracTask,2,,4,4,1,343,2,i,m,r,122,446824,447167,122,,,,Sub3
task,pracTask,2,,5,5,1,1265,9,i,m,r,109,449151,450416,109,,,,Sub3
task,pracTask,2,,6,6,0,1063,4,i,p,s,122,452401,453464,109,,,,Sub3
task,pracTask,2,,7,7,0,1125,6,c,m,s,122,458870,459995,109,,,,Sub3
task,pracTask,2,,8,8,0,406,2,i,m,r,109,461964,462370,122,,,,Sub3
task,pracTask,2,,9,9,1,1173,1,c,p,s,122,464291,465464,122,,,,Sub3
task,pracTask,2,,10,10,0,,6,c,p,r,,467479,,109,,,,Sub3
task,pracTask,2,,11,11,1,1422,3,c,m,s,122,470900,472322,122,,,,Sub3
task,pracTask,2,,12,12,0,,1,c,p,s,,474323,,122,,,,Sub3
task,pracTask,2,,13,13,0,1187,7,i,p,r,109,477683,478870,122,,,,Sub3
task,pracTask,2,,14,14,0,1173,2,i,p,r,122,480933,482106,109,,,,Sub3
task,pracTask,2,,15,15,1,1250,6,c,p,r,109,484120,485370,109,,,,Sub3
task,pracTask,2,,16,16,0,,8,c,m,s,,487245,,109,,,,Sub3
prac3,pracFeedback,2,,,,,,,,,,,,,,490105,493417,3312,Sub3
prac3,instructions,3,,,,,,,,,,,,,,493417,518667,25250,Sub3
task,pracTask,3,,1,1,0,,2,i,m,n,,522214,,122,,,,Sub3
task,pracTask,3,,2,2,0,1485,4,i,m,r,109,525650,527135,122,,,,Sub3
task,pracTask,3,,3,3,0,,2,i,p,s,,528917,,109,,,,Sub3
task,pracTask,3,,4,4,0,,3,c,m,s,,532339,,122,,,,Sub3
task,pracTask,3,,5,5,0,,1,c,m,r,,535776,,122,,,,Sub3
task,pracTask,3,,6,6,0,,3,c,p,s,,539198,,122,,,,Sub3
task,pracTask,3,,7,7,0,,1,c,p,r,,542620,,122,,,,Sub3
task,pracTask,3,,8,8,1,969,8,c,m,s,109,545995,546964,109,,,,Sub3
task,pracTask,3,,9,9,1,1031,6,c,m,r,109,548870,549901,109,,,,Sub3
task,pracTask,3,,10,10,1,1407,9,i,p,s,122,551870,553277,122,,,,Sub3
task,pracTask,3,,11,11,1,1125,7,i,m,s,109,555120,556245,109,,,,Sub3
task,pracTask,3,,12,12,1,968,2,i,m,r,122,558120,559088,122,,,,Sub3
task,pracTask,3,,13,13,1,922,4,i,p,s,109,561135,562057,109,,,,Sub3
task,pracTask,3,,14,14,0,1156,9,i,p,r,109,564151,565307,122,,,,Sub3
task,pracTask,3,,15,15,0,,6,c,p,r,,567167,,109,,,,Sub3
task,pracTask,3,,16,16,1,1156,1,c,p,r,122,570386,571542,122,,,,Sub3
prac3,pracFeedback,3,,,,,,,,,,,,,,573010,575698,2688,Sub3
prac3,instructions,4,,,,,,,,,,,,,,575698,583530,7832,Sub3
task,pracTask,4,,1,1,0,1172,7,i,p,n,120,587104,588276,122,,,,Sub3
task,pracTask,4,,2,2,0,,6,c,p,r,,590198,,109,,,,Sub3
task,pracTask,4,,3,3,1,1313,3,c,p,r,122,593620,594933,122,,,,Sub3
task,pracTask,4,,4,4,1,1000,7,i,p,r,122,597026,598026,122,,,,Sub3
task,pracTask,4,,5,5,1,1312,8,c,m,s,109,600026,601338,109,,,,Sub3
task,pracTask,4,,6,6,1,1156,6,c,m,r,109,603417,604573,109,,,,Sub3
task,pracTask,4,,7,7,0,1125,7,i,p,s,109,606573,607698,122,,,,Sub3
task,pracTask,4,,8,8,1,1234,8,c,m,s,109,609761,610995,109,,,,Sub3
task,pracTask,4,,9,9,1,1109,9,i,m,r,109,613058,614167,109,,,,Sub3
task,pracTask,4,,10,10,0,1109,3,c,m,r,109,616026,617135,122,,,,Sub3
task,pracTask,4,,11,11,0,,7,i,p,s,,619026,,122,,,,Sub3
task,pracTask,4,,12,12,1,1110,9,i,p,r,122,622463,623573,122,,,,Sub3
task,pracTask,4,,13,13,1,1391,7,i,m,s,109,625433,626824,109,,,,Sub3
task,pracTask,4,,14,14,1,1375,4,i,m,r,122,628714,630089,122,,,,Sub3
task,pracTask,4,,15,15,1,1188,3,c,p,s,122,632135,633323,122,,,,Sub3
task,pracTask,4,,16,16,1,937,6,c,m,s,109,635276,636213,109,,,,Sub3
prac3,pracFeedback,4,,,,,,,,,,,,,,637588,639933,2345,Sub3
prac3,instructions,5,,,,,,,,,,,,,,639933,647088,7155,Sub3
task,pracTask,5,,1,1,1,1047,9,i,m,n,109,650635,651682,109,,,,Sub3
task,pracTask,5,,2,2,0,1297,4,i,p,s,122,653558,654855,109,,,,Sub3
task,pracTask,5,,3,3,0,,8,c,m,s,,656916,,109,,,,Sub3
task,pracTask,5,,4,4,1,1453,6,c,m,r,109,660136,661589,109,,,,Sub3
task,pracTask,5,,5,5,1,1031,3,c,p,s,122,663480,664511,122,,,,Sub3
task,pracTask,5,,6,6,1,1328,4,i,m,s,122,666479,667807,122,,,,Sub3
task,pracTask,5,,7,7,1,1063,1,c,p,s,122,669729,670792,122,,,,Sub3
task,pracTask,5,,8,8,0,,4,i,p,r,,672698,,109,,,,Sub3
task,pracTask,5,,9,9,0,1266,7,i,m,s,122,675901,677167,109,,,,Sub3
task,pracTask,5,,10,10,0,1407,8,c,m,r,122,679229,680636,109,,,,Sub3
task,pracTask,5,,11,11,0,,7,i,m,r,,682541,,109,,,,Sub3
task,pracTask,5,,12,12,0,,4,i,m,r,,685964,,122,,,,Sub3
task,pracTask,5,,13,13,0,,8,c,p,s,,689385,,109,,,,Sub3
task,pracTask,5,,14,14,1,1062,1,c,p,r,122,692620,693682,122,,,,Sub3
task,pracTask,5,,15,15,0,,7,i,p,r,,695823,,122,,,,Sub3
task,pracTask,5,,16,16,1,735,3,c,p,r,122,699183,699918,122,,,,Sub3
prac3,pracFeedback,5,,,,,,,,,,,,,,701432,703527,2095,Sub3
prac3,instructions,6,,,,,,,,,,,,,,703527,707432,3905,Sub3
task,pracTask,6,,1,1,0,,6,c,m,n,,710964,,109,,,,Sub3
task,pracTask,6,,2,2,0,1375,7,i,m,r,122,714385,715760,109,,,,Sub3
task,pracTask,6,,3,3,1,1358,8,c,p,s,109,717793,719151,109,,,,Sub3
task,pracTask,6,,4,4,1,1031,3,c,m,s,122,721026,722057,122,,,,Sub3
task,pracTask,6,,5,5,1,1234,9,i,m,r,109,724074,725308,109,,,,Sub3
task,pracTask,6,,6,6,1,1156,4,i,m,r,122,727370,728526,122,,,,Sub3
task,pracTask,6,,7,7,0,1203,7,i,p,s,109,730448,731651,122,,,,Sub3
task,pracTask,6,,8,8,0,,4,i,p,r,,733605,,109,,,,Sub3
task,pracTask,6,,9,9,1,1266,3,c,p,r,122,737026,738292,122,,,,Sub3
task,pracTask,6,,10,10,1,1126,4,i,p,r,109,740291,741417,109,,,,Sub3
task,pracTask,6,,11,11,1,798,1,c,m,s,122,743463,744261,122,,,,Sub3
task,pracTask,6,,12,12,1,1000,6,c,p,s,109,746292,747292,109,,,,Sub3
task,pracTask,6,,13,13,1,1063,7,i,m,s,109,749214,750277,109,,,,Sub3
task,pracTask,6,,14,14,1,1281,6,c,m,r,109,752385,753666,109,,,,Sub3
task,pracTask,6,,15,15,1,938,3,c,p,s,122,755714,756652,122,,,,Sub3
task,pracTask,6,,16,16,0,1219,9,i,p,r,109,758745,759964,122,,,,Sub3
prac3,pracFeedback,6,,,,,,,,,,,,,,761292,763245,1953,Sub3
prac3,instructions,7,,,,,,,,,,,,,,763245,764901,1656,Sub3
task,pracTask,7,,1,1,1,1063,3,c,p,n,122,768417,769480,122,,,,Sub3
task,pracTask,7,,2,2,1,938,4,i,p,r,109,771464,772402,109,,,,Sub3
task,pracTask,7,,3,3,0,,3,c,m,s,,774370,,122,,,,Sub3
task,pracTask,7,,4,4,1,1408,1,c,p,s,122,777588,778996,122,,,,Sub3
task,pracTask,7,,5,5,1,1316,6,c,m,s,109,780870,782186,109,,,,Sub3
task,pracTask,7,,6,6,1,1219,3,c,p,s,122,784073,785292,122,,,,Sub3
task,pracTask,7,,7,7,0,1033,2,i,p,r,122,787291,788324,109,,,,Sub3
task,pracTask,7,,8,8,0,,7,i,p,r,,790401,,122,,,,Sub3
task,pracTask,7,,9,9,0,,1,c,m,s,,793683,,122,,,,Sub3
task,pracTask,7,,10,10,1,1296,3,c,p,s,122,797120,798416,122,,,,Sub3
task,pracTask,7,,11,11,1,1265,9,i,p,r,122,800526,801791,122,,,,Sub3
task,pracTask,7,,12,12,0,1032,4,i,m,s,109,803729,804761,122,,,,Sub3
task,pracTask,7,,13,13,1,922,9,i,m,r,109,806729,807651,109,,,,Sub3
task,pracTask,7,,14,14,1,1406,7,i,m,r,109,809620,811026,109,,,,Sub3
task,pracTask,7,,15,15,1,985,3,c,m,r,122,812995,813980,122,,,,Sub3
task,pracTask,7,,16,16,1,811,7,i,m,r,109,815886,816697,109,,,,Sub3
prac3,pracFeedback,7,,,,,,,,,,,,,,818136,820041,1905,Sub3
prac3,instructions,8,,,,,,,,,,,,,,820041,825042,5001,Sub3
task,pracTask,8,,1,1,0,1375,4,i,m,n,109,828589,829964,122,,,,Sub3
task,pracTask,8,,2,2,0,,9,i,p,s,,832026,,122,,,,Sub3
task,pracTask,8,,3,3,0,1156,4,i,p,r,122,835308,836464,109,,,,Sub3
task,pracTask,8,,4,4,1,1219,8,c,m,s,109,838308,839527,109,,,,Sub3
task,pracTask,8,,5,5,1,1047,2,i,m,r,122,841557,842604,122,,,,Sub3
task,pracTask,8,,6,6,0,1047,9,i,p,s,109,844683,845730,122,,,,Sub3
task,pracTask,8,,7,7,0,1031,7,i,m,s,122,847776,848807,109,,,,Sub3
task,pracTask,8,,8,8,1,1157,1,c,m,r,122,850807,851964,122,,,,Sub3
task,pracTask,8,,9,9,1,1094,9,i,m,r,109,854057,855151,109,,,,Sub3
task,pracTask,8,,10,10,1,1140,3,c,m,r,122,857026,858166,122,,,,Sub3
task,pracTask,8,,11,11,0,,6,c,p,s,,860245,,109,,,,Sub3
task,pracTask,8,,12,12,0,1187,8,c,p,r,122,863636,864823,109,,,,Sub3
task,pracTask,8,,13,13,0,1437,7,i,p,r,109,866870,868307,122,,,,Sub3
task,pracTask,8,,14,14,1,375,8,c,m,s,109,870104,870479,109,,,,Sub3
task,pracTask,8,,15,15,1,1172,1,c,p,s,122,872339,873511,122,,,,Sub3
task,pracTask,8,,16,16,1,1031,3,c,p,r,122,875433,876464,122,,,,Sub3
prac3,pracFeedback,8,,,,,,,,,,,,,,877933,879683,1750,Sub3
prac3,instructions,9,,,,,,,,,,,,,,879683,887495,7812,Sub3
task,pracTask,9,,1,1,1,969,1,c,m,n,122,891026,891995,122,,,,Sub3
task,pracTask,9,,2,2,0,1219,8,c,p,s,122,894010,895229,109,,,,Sub3
task,pracTask,9,,3,3,0,,7,i,p,r,,897214,,122,,,,Sub3
task,pracTask,9,,4,4,1,1203,1,c,m,s,122,900448,901651,122,,,,Sub3
task,pracTask,9,,5,5,1,1298,4,i,m,r,122,903714,905012,122,,,,Sub3
task,pracTask,9,,6,6,0,1063,8,c,m,r,122,907058,908121,109,,,,Sub3
task,pracTask,9,,7,7,1,985,1,c,p,s,122,910120,911105,122,,,,Sub3
task,pracTask,9,,8,8,0,1125,3,c,m,s,109,913151,914276,122,,,,Sub3
task,pracTask,9,,9,9,0,,4,i,m,r,,916370,,122,,,,Sub3
task,pracTask,9,,10,10,1,954,2,i,m,r,122,919760,920714,122,,,,Sub3
task,pracTask,9,,11,11,0,1125,7,i,p,s,109,922698,923823,122,,,,Sub3
task,pracTask,9,,12,12,0,,4,i,p,r,,925823,,109,,,,Sub3
task,pracTask,9,,13,13,0,,1,c,m,s,,929026,,122,,,,Sub3
task,pracTask,9,,14,14,0,1390,2,i,p,s,122,932293,933683,109,,,,Sub3
task,pracTask,9,,15,15,1,1407,4,i,p,r,109,935729,937136,109,,,,Sub3
task,pracTask,9,,16,16,1,1016,8,c,p,r,109,939151,940167,109,,,,Sub3
prac3,pracFeedback,9,,,,,,,,,,,,,,941526,943636,2110,Sub3
prac3,instructions,10,,,,,,,,,,,,,,943636,1061386,117750,Sub3
task,pracTask,10,,1,1,0,,4,i,m,n,,1064917,,122,,,,Sub3
task,pracTask,10,,2,2,1,922,1,c,m,r,122,1068198,1069120,122,,,,Sub3
task,pracTask,10,,3,3,0,1282,7,i,p,s,109,1071183,1072465,122,,,,Sub3
task,pracTask,10,,4,4,0,,3,c,p,r,,1074385,,122,,,,Sub3
task,pracTask,10,,5,5,1,907,9,i,p,r,122,1077792,1078699,122,,,,Sub3
task,pracTask,10,,6,6,0,938,2,i,p,r,122,1080698,1081636,109,,,,Sub3
task,pracTask,10,,7,7,0,,4,i,m,s,,1083698,,122,,,,Sub3
task,pracTask,10,,8,8,1,1047,8,c,m,r,109,1086995,1088042,109,,,,Sub3
task,pracTask,10,,9,9,1,1063,1,c,p,s,122,1090135,1091198,122,,,,Sub3
task,pracTask,10,,10,10,1,1110,6,c,m,s,109,1093183,1094293,109,,,,Sub3
task,pracTask,10,,11,11,1,937,3,c,m,r,122,1096214,1097151,122,,,,Sub3
task,pracTask,10,,12,12,0,,7,i,p,s,,1099136,,122,,,,Sub3
task,pracTask,10,,13,13,1,1047,9,i,p,r,122,1102526,1103573,122,,,,Sub3
task,pracTask,10,,14,14,0,1126,8,c,m,s,122,1105401,1106527,109,,,,Sub3
task,pracTask,10,,15,15,0,1422,6,c,m,r,122,1108604,1110026,109,,,,Sub3
task,pracTask,10,,16,16,0,860,9,i,p,s,109,1112026,1112886,122,,,,Sub3
prac3,pracFeedback,10,,,,,,,,,,,,,,1114261,1116026,1765,Sub3
prac3,instructions,11,,,,,,,,,,,,,,1116026,1125603,9577,Sub3
task,pracTask,11,,1,1,1,1219,9,i,p,n,122,1129151,1130370,122,,,,Sub3
task,pracTask,11,,2,2,1,1094,3,c,p,r,122,1132276,1133370,122,,,,Sub3
task,pracTask,11,,3,3,0,1313,4,i,p,r,122,1135401,1136714,109,,,,Sub3
task,pracTask,11,,4,4,1,1203,9,i,m,s,109,1138760,1139963,109,,,,Sub3
task,pracTask,11,,5,5,0,1500,6,c,p,s,122,1141901,1143401,109,,,,Sub3
task,pracTask,11,,6,6,1,1062,4,i,p,r,109,1145151,1146213,109,,,,Sub3
task,pracTask,11,,7,7,1,1265,7,i,m,s,109,1148214,1149479,109,,,,Sub3
task,pracTask,11,,8,8,1,1047,3,c,m,r,122,1151526,1152573,122,,,,Sub3
task,pracTask,11,,9,9,0,,9,i,p,s,,1154574,,122,,,,Sub3
task,pracTask,11,,10,10,0,,3,c,p,r,,1157901,,122,,,,Sub3
task,pracTask,11,,11,11,1,1453,1,c,m,s,122,1161136,1162589,122,,,,Sub3
task,pracTask,11,,12,12,1,1389,9,i,m,r,109,1164371,1165760,109,,,,Sub3
task,pracTask,11,,13,13,0,1063,7,i,m,r,122,1167807,1168870,109,,,,Sub3
task,pracTask,11,,14,14,1,937,1,c,m,r,122,1170995,1171932,122,,,,Sub3
task,pracTask,11,,15,15,0,,6,c,p,s,,1174058,,109,,,,Sub3
task,pracTask,11,,16,16,1,1268,1,c,m,s,122,1177433,1178701,122,,,,Sub3
prac3,pracFeedback,11,,,,,,,,,,,,,,1180273,1211225,30952,Sub3
prac3,instructions,12,,,,,,,,,,,,,,1211230,1217032,5802,Sub3
task,pracTask,12,,1,1,1,1353,4,i,m,n,122,1220539,1221892,122,,,,Sub3
task,pracTask,12,,2,2,0,992,9,i,p,s,109,1223745,1224737,122,,,,Sub3
task,pracTask,12,,3,3,1,1095,4,i,m,s,122,1226816,1227911,122,,,,Sub3
task,pracTask,12,,4,4,1,966,3,c,m,r,122,1229801,1230767,122,,,,Sub3
task,pracTask,12,,5,5,0,1109,8,c,m,r,122,1232663,1233772,109,,,,Sub3
task,pracTask,12,,6,6,0,,6,c,m,r,,1235807,,109,,,,Sub3
task,pracTask,12,,7,7,0,,8,c,p,s,,1239115,,109,,,,Sub3
task,pracTask,12,,8,8,1,1291,7,i,m,s,109,1242472,1243763,109,,,,Sub3
task,pracTask,12,,9,9,1,961,2,i,m,r,122,1245875,1246836,122,,,,Sub3
task,pracTask,12,,10,10,1,1038,1,c,p,s,122,1248694,1249732,122,,,,Sub3
task,pracTask,12,,11,11,1,1364,4,i,m,s,122,1251824,1253188,122,,,,Sub3
task,pracTask,12,,12,12,0,945,9,i,p,s,109,1255131,1256076,122,,,,Sub3
task,pracTask,12,,13,13,1,1218,6,c,p,r,109,1258098,1259316,109,,,,Sub3
task,pracTask,12,,14,14,0,1257,9,i,p,r,109,1261318,1262575,122,,,,Sub3
task,pracTask,12,,15,15,1,942,1,c,p,r,122,1264465,1265407,122,,,,Sub3
