expStage,sectionType,block,blockType,trialCount,blockTrialCount,acc,RT,global_stim,local_stim,stimCongruency,taskCue,switchType,partKey,stimOnset,respOnset,correct_resp,sectionStart,sectionEnd,sectionTime,subject
prac1-1,instructions,1,,,,,,,,,,,,,,,0,5341,5341,Sub1
prac1-2,instructions,1,,,,,,,,,,,,,,,5343,26939,21596,Sub1
task,pracTask,1,,1,1,1,729,H,H,c,l,n,49,30491,31220,49,,,,Sub1
task,pracTask,1,,2,2,1,567,S,S,c,l,r,48,32983,33550,48,,,,Sub1
task,pracTask,1,,3,3,1,695,S,S,c,l,r,48,35430,36125,48,,,,Sub1
task,pracTask,1,,4,4,1,542,H,H,c,l,r,49,37834,38376,49,,,,Sub1
task,pracTask,1,,5,5,1,672,S,H,i,l,r,49,40088,40760,49,,,,Sub1
task,pracTask,1,,6,6,1,678,H,H,c,l,r,49,42527,43205,49,,,,Sub1
task,pracTask,1,,7,7,1,588,H,H,c,l,r,49,45025,45613,49,,,,Sub1
task,pracTask,1,,8,8,1,656,H,S,i,l,r,48,47426,48082,48,,,,Sub1
task,pracTask,1,,9,9,1,693,S,H,i,l,r,49,49791,50484,49,,,,Sub1
task,pracTask,1,,10,10,1,647,H,H,c,l,r,49,52408,53055,49,,,,Sub1
task,pracTask,1,,11,11,1,621,H,S,i,l,r,48,54878,55499,48,,,,Sub1
task,pracTask,1,,12,12,1,798,S,S,c,l,r,48,57233,58031,48,,,,Sub1
task,pracTask,1,,13,13,1,966,S,H,i,l,r,49,59948,60914,49,,,,Sub1
task,pracTask,1,,14,14,0,564,H,S,i,l,r,49,62631,63195,48,,,,Sub1
task,pracTask,1,,15,15,1,754,H,S,i,l,r,48,65052,65806,48,,,,Sub1
task,pracTask,1,,16,16,1,648,H,S,i,l,r,48,67537,68185,48,,,,Sub1
prac1-2,pracFeedback,1,,,,,,,,,,,,,,,69401,71642,2241,Sub1
prac2,instructions,1,,,,,,,,,,,,,,,71642,78210,6568,Sub1
task,pracTask,1,,1,1,1,577,S,S,c,g,n,48,81748,82325,48,,,,Sub1
task,pracTask,1,,2,2,0,617,S,H,i,g,r,49,84087,84704,48,,,,Sub1
task,pracTask,1,,3,3,0,903,S,H,i,g,r,49,86470,87373,48,,,,Sub1
task,pracTask,1,,4,4,0,,S,H,i,g,r,,89096,,48,,,,Sub1
task,pracTask,1,,5,5,1,1152,S,H,i,g,r,48,92369,93521,48,,,,Sub1
task,pracTask,1,,6,6,0,,S,S,c,g,r,,95301,,48,,,,Sub1
task,pracTask,1,,7,7,1,1000,S,S,c,g,r,48,98528,99528,48,,,,Sub1
task,pracTask,1,,8,8,1,687,H,H,c,g,r,49,101247,101934,49,,,,Sub1
task,pracTask,1,,9,9,1,615,S,S,c,g,r,48,103855,104470,48,,,,Sub1
task,pracTask,1,,10,10,0,617,H,S,i,g,r,48,106285,106902,49,,,,Sub1
task,pracTask,1,,11,11,1,1060,H,S,i,g,r,49,108827,109887,49,,,,Sub1
task,pracTask,1,,12,12,1,1123,S,H,i,g,r,48,111698,112821,48,,,,Sub1
task,pracTask,1,,13,13,1,638,H,H,c,g,r,49,114531,115169,49,,,,Sub1
task,pracTask,1,,14,14,1,759,S,S,c,g,r,48,116941,117700,48,,,,Sub1
task,pracTask,1,,15,15,1,801,S,S,c,g,r,48,119418,120219,48,,,,Sub1
task,pracTask,1,,16,16,1,759,S,H,i,g,r,48,122083,122842,48,,,,Sub1
prac2,pracFeedback,1,,,,,,,,,,,,,,,124255,126887,2632,Sub1
prac2,instructions,2,,,,,,,,,,,,,,,126889,128042,1153,Sub1
task,pracTask,2,,1,1,0,660,S,H,i,g,n,112,131583,132243,48,,,,Sub1
task,pracTask,2,,2,2,0,884,S,H,i,g,r,112,134056,134940,48,,,,Sub1
task,pracTask,2,,3,3,0,,H,H,c,g,r,,136709,,49,,,,Sub1
task,pracTask,2,,4,4,1,759,S,S,c,g,r,48,139939,140698,48,,,,Sub1
task,pracTask,2,,5,5,1,705,S,S,c,g,r,48,142570,143275,48,,,,Sub1
task,pracTask,2,,6,6,1,1080,H,S,i,g,r,49,145093,146173,49,,,,Sub1
task,pracTask,2,,7,7,1,599,H,H,c,g,r,49,147991,148590,49,,,,Sub1
task,pracTask,2,,8,8,1,799,H,S,i,g,r,49,150520,151319,49,,,,Sub1
task,pracTask,2,,9,9,1,788,H,S,i,g,r,49,153091,153879,49,,,,Sub1
task,pracTask,2,,10,10,1,725,H,S,i,g,r,49,155761,156486,49,,,,Sub1
task,pracTask,2,,11,11,1,806,H,S,i,g,r,49,158310,159116,49,,,,Sub1
task,pracTask,2,,12,12,1,698,H,H,c,g,r,49,161027,161725,49,,,,Sub1
task,pracTask,2,,13,13,1,657,H,H,c,g,r,49,163441,164098,49,,,,Sub1
task,pracTask,2,,14,14,1,629,H,H,c,g,r,49,165899,166528,49,,,,Sub1
task,pracTask,2,,15,15,0,643,H,S,i,g,r,48,168298,168941,49,,,,Sub1
task,pracTask,2,,16,16,1,590,H,H,c,g,r,49,170717,171307,49,,,,Sub1
prac2,pracFeedback,2,,,,,,,,,,,,,,,172563,174375,1812,Sub1
prac3,instructions,1,,,,,,,,,,,,,,,174377,191314,16937,Sub1
task,pracTask,1,,1,1,1,1216,H,S,i,g,n,49,194843,196059,49,,,,Sub1
task,pracTask,1,,2,2,1,1172,S,H,i,l,s,49,197914,199086,49,,,,Sub1
task,pracTask,1,,3,3,1,797,H,H,c,l,r,49,200800,201597,49,,,,Sub1
task,pracTask,1,,4,4,1,950,S,S,c,l,r,48,203467,204417,48,,,,Sub1
task,pracTask,1,,5,5,1,1062,S,H,i,g,s,48,206229,207291,48,,,,Sub1
task,pracTask,1,,6,6,1,1116,H,H,c,l,s,49,209060,210176,49,,,,Sub1
task,pracTask,1,,7,7,1,845,S,H,i,l,r,49,212050,212895,49,,,,Sub1
task,pracTask,1,,8,8,0,,S,H,i,g,s,,214763,,48,,,,Sub1
task,pracTask,1,,9,9,1,1354,H,S,i,l,s,48,218044,219398,48,,,,Sub1
task,pracTask,1,,10,10,1,981,S,S,c,l,r,48,221219,222200,48,,,,Sub1
task,pracTask,1,,11,11,1,1403,H,H,c,g,s,49,223969,225372,49,,,,Sub1
task,pracTask,1,,12,12,1,1209,H,S,i,g,r,49,227278,228487,49,,,,Sub1
task,pracTask,1,,13,13,1,933,H,S,i,g,r,49,230357,231290,49,,,,Sub1
task,pracTask,1,,14,14,1,655,H,H,c,g,r,49,233150,233805,49,,,,Sub1
task,pracTask,1,,15,15,0,639,S,S,c,g,r,49,235674,236313,48,,,,Sub1
task,pracTask,1,,16,16,1,1143,S,S,c,l,s,48,238229,239372,48,,,,Sub1
prac3,pracFeedback,1,,,,,,,,,,,,,,,240591,1054395,813804,Sub1
main1,instructions,1,,,,,,,,,,,,,,,1054397,1082609,28212,Sub1
main2,instructions,1,,,,,,,,,,,,,,,1082612,1091299,8687,Sub1
task,mainTask,1,A,1,1,0,,S,S,c,l,n,,1094846,,48,,,,Sub1
task,mainTask,1,A,2,2,0,,H,S,i,g,s,,1098110,,49,,,,Sub1
task,mainTask,1,A,3,3,0,990,S,H,i,g,r,49,1101328,1102318,48,,,,Sub1
task,mainTask,1,A,4,4,1,1152,H,H,c,g,r,49,1104233,1105385,49,,,,Sub1
task,mainTask,1,A,5,5,1,1357,S,H,i,g,r,48,1107294,1108651,48,,,,Sub1
task,mainTask,1,A,6,6,1,904,H,S,i,g,r,49,1110562,1111466,49,,,,Sub1
task,mainTask,1,A,7,7,1,1157,S,H,i,g,r,48,1113243,1114400,48,,,,Sub1
task,mainTask,1,A,8,8,1,1014,S,H,i,g,r,48,1116272,1117286,48,,,,Sub1
task,mainTask,1,A,9,9,1,1347,S,H,i,l,s,49,1119104,1120451,49,,,,Sub1
task,mainTask,1,A,10,10,0,,H,S,i,l,r,,1122369,,48,,,,Sub1
task,mainTask,1,A,11,11,1,1124,S,H,i,l,r,49,1125639,1126763,49,,,,Sub1
task,mainTask,1,A,12,12,1,944,S,H,i,l,r,49,1128637,1129581,49,,,,Sub1
task,mainTask,1,A,13,13,1,928,H,S,i,g,s,49,1131494,1132422,49,,,,Sub1
task,mainTask,1,A,14,14,1,1394,S,S,c,l,s,48,1134336,1135730,48,,,,Sub1
task,mainTask,1,A,15,15,1,1136,S,S,c,g,s,48,1137450,1138586,48,,,,Sub1
task,mainTask,1,A,16,16,1,810,H,S,i,g,r,49,1140310,1141120,49,,,,Sub1
task,mainTask,1,A,17,17,1,1143,S,H,i,g,r,48,1143034,1144177,48,,,,Sub1
task,mainTask,1,A,18,18,1,800,S,S,c,g,r,48,1145907,1146707,48,,,,Sub1
task,mainTask,1,A,19,19,0,938,S,H,i,l,s,48,1148421,1149359,49,,,,Sub1
task,mainTask,1,A,20,20,1,869,S,H,i,l,r,49,1151113,1151982,49,,,,Sub1
task,mainTask,1,A,21,21,0,,H,S,i,l,r,,1153751,,48,,,,Sub1
task,mainTask,1,A,22,22,1,1088,H,S,i,l,r,48,1157176,1158264,48,,,,Sub1
task,mainTask,1,A,23,23,1,1202,S,H,i,l,r,49,1160132,1161334,49,,,,Sub1
task,mainTask,1,A,24,24,1,1158,S,S,c,g,s,48,1163122,1164280,48,,,,Sub1
task,mainTask,1,A,25,25,1,1510,S,H,i,g,r,48,1166149,1167659,48,,,,Sub1
task,mainTask,1,A,26,26,1,977,H,S,i,g,r,49,1169517,1170494,49,,,,Sub1
task,mainTask,1,A,27,27,1,888,H,S,i,g,r,49,1172263,1173151,49,,,,Sub1
task,mainTask,1,A,28,28,1,882,H,S,i,g,r,49,1174868,1175750,49,,,,Sub1
task,mainTask,1,A,29,29,1,658,H,S,i,g,r,49,1177625,1178283,49,,,,Sub1
task,mainTask,1,A,30,30,0,1449,S,H,i,g,r,52,1180045,1181494,48,,,,Sub1
task,mainTask,1,A,31,31,1,924,H,H,c,g,r,49,1183220,1184144,49,,,,Sub1
task,mainTask,1,A,32,32,1,905,S,H,i,g,r,48,1185955,1186860,48,,,,Sub1
task,mainTask,1,A,33,33,1,1075,S,H,i,g,r,48,1188785,1189860,48,,,,Sub1
task,mainTask,1,A,34,34,1,1245,H,H,c,l,s,49,1191676,1192921,49,,,,Sub1
task,mainTask,1,A,35,35,0,,S,H,i,l,r,,1194739,,49,,,,Sub1
task,mainTask,1,A,36,36,1,1137,S,S,c,l,r,48,1197960,1199097,48,,,,Sub1
task,mainTask,1,A,37,37,0,785,S,H,i,l,r,48,1201013,1201798,49,,,,Sub1
task,mainTask,1,A,38,38,0,,H,S,i,g,s,,1203717,,49,,,,Sub1
task,mainTask,1,A,39,39,1,796,H,S,i,g,r,49,1207143,1207939,49,,,,Sub1
task,mainTask,1,A,40,40,0,1103,H,H,c,l,s,48,1209653,1210756,49,,,,Sub1
task,mainTask,1,A,41,41,1,968,H,S,i,l,r,48,1212679,1213647,48,,,,Sub1
task,mainTask,1,A,42,42,1,908,H,S,i,l,r,48,1215518,1216426,48,,,,Sub1
task,mainTask,1,A,43,43,1,898,S,H,i,l,r,49,1218335,1219233,49,,,,Sub1
task,mainTask,1,A,44,44,1,848,H,S,i,l,r,48,1221013,1221861,48,,,,Sub1
task,mainTask,1,A,45,45,1,928,H,S,i,l,r,48,1223742,1224670,48,,,,Sub1
task,mainTask,1,A,46,46,1,924,S,S,c,l,r,48,1226439,1227363,48,,,,Sub1
task,mainTask,1,A,47,47,1,911,S,H,i,l,r,49,1229227,1230138,49,,,,Sub1
task,mainTask,1,A,48,48,1,1159,S,H,i,g,s,48,1232022,1233181,48,,,,Sub1
task,mainTask,1,A,49,49,0,945,S,H,i,g,r,49,1234995,1235940,48,,,,Sub1
task,mainTask,1,A,50,50,1,1176,S,H,i,g,r,48,1237858,1239034,48,,,,Sub1
task,mainTask,1,A,51,51,1,1017,S,S,c,g,r,48,1240847,1241864,48,,,,Sub1
task,mainTask,1,A,52,52,1,1133,H,S,i,g,r,49,1243727,1244860,49,,,,Sub1
task,mainTask,1,A,53,53,1,971,H,S,i,g,r,49,1246778,1247749,49,,,,Sub1
task,mainTask,1,A,54,54,1,252,S,S,c,g,r,48,1249526,1249778,48,,,,Sub1
task,mainTask,1,A,55,55,1,793,S,H,i,g,r,48,1251506,1252299,48,,,,Sub1
task,mainTask,1,A,56,56,1,960,H,S,i,g,r,49,1254057,1255017,49,,,,Sub1
task,mainTask,1,A,57,57,1,771,H,S,i,g,r,49,1256783,1257554,49,,,,Sub1
task,mainTask,1,A,58,58,1,839,H,S,i,g,r,49,1259427,1260266,49,,,,Sub1
task,mainTask,1,A,59,59,1,1105,S,H,i,g,r,48,1262085,1263190,48,,,,Sub1
task,mainTask,1,A,60,60,1,790,H,S,i,g,r,49,1265006,1265796,49,,,,Sub1
task,mainTask,1,A,61,61,1,705,S,H,i,g,r,48,1267526,1268231,48,,,,Sub1
task,mainTask,1,A,62,62,1,788,H,H,c,g,r,49,1270152,1270940,49,,,,Sub1
task,mainTask,1,A,63,63,0,1131,S,H,i,l,s,48,1272756,1273887,49,,,,Sub1
task,mainTask,1,A,64,64,1,1056,S,H,i,l,r,49,1275604,1276660,49,,,,Sub1
task,mainTask,1,A,65,65,1,960,H,H,c,g,s,49,1278476,1279436,49,,,,Sub1
task,mainTask,1,A,66,66,1,1017,S,H,i,g,r,48,1281201,1282218,48,,,,Sub1
task,mainTask,1,A,67,67,1,1148,S,H,i,g,r,48,1284150,1285298,48,,,,Sub1
task,mainTask,1,A,68,68,1,1051,S,S,c,g,r,48,1287169,1288220,48,,,,Sub1
task,mainTask,1,A,69,69,0,,H,S,i,l,s,,1290092,,48,,,,Sub1
task,mainTask,1,A,70,70,0,994,S,H,i,l,r,48,1293459,1294453,49,,,,Sub1
task,mainTask,1,A,71,71,1,1078,H,H,c,l,r,49,1296172,1297250,49,,,,Sub1
task,mainTask,1,A,72,72,1,864,S,S,c,l,r,48,1299161,1300025,48,,,,Sub1
task,mainTask,1,A,73,73,1,959,H,S,i,l,r,48,1301897,1302856,48,,,,Sub1
task,mainTask,1,A,74,74,1,859,H,S,i,l,r,48,1304630,1305489,48,,,,Sub1
task,mainTask,1,A,75,75,1,925,H,H,c,g,s,49,1307410,1308335,49,,,,Sub1
task,mainTask,1,A,76,76,1,864,S,S,c,g,r,48,1310267,1311131,48,,,,Sub1
task,mainTask,1,A,77,77,1,1071,H,S,i,g,r,49,1312898,1313969,49,,,,Sub1
task,mainTask,1,A,78,78,1,805,S,H,i,g,r,48,1315780,1316585,48,,,,Sub1
task,mainTask,1,A,79,79,1,1195,S,H,i,l,s,49,1318359,1319554,49,,,,Sub1
task,mainTask,1,A,80,80,1,1061,H,S,i,l,r,48,1321316,1322377,48,,,,Sub1
task,mainTask,1,A,81,81,0,1309,H,S,i,l,r,49,1324197,1325506,48,,,,Sub1
task,mainTask,1,A,82,82,1,984,S,S,c,l,r,48,1327226,1328210,48,,,,Sub1
task,mainTask,1,A,83,83,1,862,H,S,i,l,r,48,1330137,1330999,48,,,,Sub1
task,mainTask,1,A,84,84,1,807,H,S,i,l,r,48,1332820,1333627,48,,,,Sub1
task,mainTask,1,A,85,85,0,836,S,H,i,l,r,48,1335366,1336202,49,,,,Sub1
task,mainTask,1,A,86,86,1,895,S,S,c,l,r,48,1337929,1338824,48,,,,Sub1
task,mainTask,1,A,87,87,1,1057,S,H,i,l,r,49,1340692,1341749,49,,,,Sub1
task,mainTask,1,A,88,88,1,980,H,H,c,l,r,49,1343660,1344640,49,,,,Sub1
task,mainTask,1,A,89,89,1,774,H,S,i,l,r,48,1346507,1347281,48,,,,Sub1
task,mainTask,1,A,90,90,1,971,H,H,c,l,r,49,1349150,1350121,49,,,,Sub1
task,mainTask,1,A,91,91,1,1119,S,H,i,l,r,49,1351940,1353059,49,,,,Sub1
task,mainTask,1,A,92,92,1,756,S,H,i,l,r,49,1354928,1355684,49,,,,Sub1
task,mainTask,1,A,93,93,1,736,S,S,c,l,r,48,1357408,1358144,48,,,,Sub1
task,mainTask,1,A,94,94,1,995,H,S,i,g,s,49,1360012,1361007,49,,,,Sub1
task,mainTask,1,A,95,95,1,929,S,H,i,l,s,49,1362785,1363714,49,,,,Sub1
task,mainTask,1,A,96,96,0,1111,S,H,i,g,s,49,1365426,1366537,48,,,,Sub1
task,mainTask,1,A,97,97,1,1115,H,S,i,g,r,49,1368412,1369527,49,,,,Sub1
task,mainTask,1,A,98,98,1,967,H,S,i,g,r,49,1371356,1372323,49,,,,Sub1
task,mainTask,1,A,99,99,1,871,S,H,i,l,s,49,1374121,1374992,49,,,,Sub1
task,mainTask,1,A,100,100,1,1374,S,H,i,l,r,49,1376907,1378281,49,,,,Sub1
task,mainTask,1,A,101,101,0,1000,H,H,c,g,s,50,1380002,1381002,49,,,,Sub1
task,mainTask,1,A,102,102,0,,S,S,c,l,s,,1382728,,48,,,,Sub1
task,mainTask,1,A,103,103,1,980,H,S,i,l,r,48,1385999,1386979,48,,,,Sub1
task,mainTask,1,A,104,104,0,1195,H,S,i,l,r,49,1388843,1390038,48,,,,Sub1
task,mainTask,1,A,105,105,1,1372,H,S,i,l,r,48,1391857,1393229,48,,,,Sub1
task,mainTask,1,A,106,106,0,895,S,H,i,g,s,49,1395044,1395939,48,,,,Sub1
task,mainTask,1,A,107,107,1,1124,S,H,i,g,r,48,1397772,1398896,48,,,,Sub1
task,mainTask,1,A,108,108,1,1145,S,S,c,g,r,48,1400732,1401877,48,,,,Sub1
task,mainTask,1,A,109,109,1,889,H,H,c,g,r,49,1403696,1404585,49,,,,Sub1
task,mainTask,1,A,110,110,0,797,S,H,i,l,s,48,1406309,1407106,49,,,,Sub1
task,mainTask,1,A,111,111,1,925,S,H,i,l,r,49,1408869,1409794,49,,,,Sub1
task,mainTask,1,A,112,112,1,1040,S,S,c,g,s,48,1411664,1412704,48,,,,Sub1
task,mainTask,1,A,113,113,1,1299,S,H,i,g,r,48,1414420,1415719,48,,,,Sub1
task,mainTask,1,A,114,114,1,1172,S,S,c,g,r,48,1417638,1418810,48,,,,Sub1
task,mainTask,1,A,115,115,1,732,S,H,i,g,r,48,1420733,1421465,48,,,,Sub1
task,mainTask,1,A,116,116,0,840,H,S,i,l,s,49,1423388,1424228,48,,,,Sub1
task,mainTask,1,A,117,117,1,934,S,S,c,g,s,48,1425948,1426882,48,,,,Sub1
task,mainTask,1,A,118,118,1,1106,S,H,i,l,s,49,1428599,1429705,49,,,,Sub1
task,mainTask,1,A,119,119,1,930,H,S,i,l,r,48,1431632,1432562,48,,,,Sub1
task,mainTask,1,A,120,120,1,847,H,S,i,l,r,48,1434471,1435318,48,,,,Sub1
task,mainTask,1,A,121,121,1,778,H,S,i,l,r,48,1437093,1437871,48,,,,Sub1
task,mainTask,1,A,122,122,1,660,H,S,i,l,r,48,1439635,1440295,48,,,,Sub1
task,mainTask,1,A,123,123,1,1030,H,S,i,g,s,49,1442114,1443144,49,,,,Sub1
task,mainTask,1,A,124,124,1,878,S,H,i,g,r,48,1445060,1445938,48,,,,Sub1
task,mainTask,1,A,125,125,1,858,S,H,i,l,s,49,1447860,1448718,49,,,,Sub1
task,mainTask,1,A,126,126,1,799,S,H,i,l,r,49,1450441,1451240,49,,,,Sub1
task,mainTask,1,A,127,127,0,946,S,H,i,l,r,48,1453057,1454003,49,,,,Sub1
task,mainTask,1,A,128,128,1,1236,S,H,i,g,s,48,1455729,1456965,48,,,,Sub1
feedback,bigBlock,2,B,,,,,,,,,,,,,,1458286,2024249,565963,Sub1
task,mainTask,2,B,129,1,1,1046,S,H,i,g,n,48,2027788,2028834,48,,,,Sub1
task,mainTask,2,B,130,2,1,958,S,H,i,l,s,49,2030647,2031605,49,,,,Sub1
task,mainTask,2,B,131,3,1,887,H,S,i,l,r,48,2033533,2034420,48,,,,Sub1
task,mainTask,2,B,132,4,1,923,H,S,i,g,s,49,2036283,2037206,49,,,,Sub1
task,mainTask,2,B,133,5,1,1237,S,H,i,l,s,49,2039074,2040311,49,,,,Sub1
task,mainTask,2,B,134,6,1,885,S,H,i,g,s,48,2042196,2043081,48,,,,Sub1
task,mainTask,2,B,135,7,1,766,S,H,i,l,s,49,2044864,2045630,49,,,,Sub1
task,mainTask,2,B,136,8,1,892,H,S,i,l,r,48,2047415,2048307,48,,,,Sub1
task,mainTask,2,B,137,9,1,803,S,S,c,g,s,48,2050039,2050842,48,,,,Sub1
task,mainTask,2,B,138,10,1,756,S,H,i,g,r,48,2052655,2053411,48,,,,Sub1
task,mainTask,2,B,139,11,1,1000,S,H,i,l,s,49,2055136,2056136,49,,,,Sub1
task,mainTask,2,B,140,12,1,879,S,S,c,g,s,48,2058008,2058887,48,,,,Sub1
task,mainTask,2,B,141,13,1,726,S,H,i,g,r,48,2060723,2061449,48,,,,Sub1
task,mainTask,2,B,142,14,0,,H,S,i,l,s,,2063235,,48,,,,Sub1
task,mainTask,2,B,143,15,0,,H,S,i,g,s,,2066465,,49,,,,Sub1
task,mainTask,2,B,144,16,0,856,S,S,c,g,r,49,2069741,2070597,48,,,,Sub1
task,mainTask,2,B,145,17,1,1306,S,H,i,g,r,48,2072421,2073727,48,,,,Sub1
task,mainTask,2,B,146,18,1,932,S,H,i,g,r,48,2075606,2076538,48,,,,Sub1
task,mainTask,2,B,147,19,0,941,H,S,i,l,s,49,2078270,2079211,48,,,,Sub1
task,mainTask,2,B,148,20,1,1221,H,S,i,g,s,49,2080924,2082145,49,,,,Sub1
task,mainTask,2,B,149,21,0,1028,S,H,i,l,s,48,2084063,2085091,49,,,,Sub1
task,mainTask,2,B,150,22,1,870,S,S,c,g,s,48,2086952,2087822,48,,,,Sub1
task,mainTask,2,B,151,23,0,961,H,S,i,l,s,49,2089750,2090711,48,,,,Sub1
task,mainTask,2,B,152,24,1,1171,S,H,i,g,s,48,2092588,2093759,48,,,,Sub1
task,mainTask,2,B,153,25,1,923,H,H,c,l,s,49,2095591,2096514,49,,,,Sub1
task,mainTask,2,B,154,26,1,1202,S,H,i,g,s,48,2098388,2099590,48,,,,Sub1
task,mainTask,2,B,155,27,1,937,H,S,i,l,s,48,2101513,2102450,48,,,,Sub1
task,mainTask,2,B,156,28,0,1261,S,S,c,g,s,49,2104324,2105585,48,,,,Sub1
task,mainTask,2,B,157,29,1,903,S,S,c,l,s,48,2107461,2108364,48,,,,Sub1
task,mainTask,2,B,158,30,0,1068,S,H,i,l,r,48,2110075,2111143,49,,,,Sub1
task,mainTask,2,B,159,31,1,1278,S,H,i,g,s,48,2112911,2114189,48,,,,Sub1
task,mainTask,2,B,160,32,1,1269,H,S,i,l,s,48,2116076,2117345,48,,,,Sub1
task,mainTask,2,B,161,33,1,1168,H,S,i,g,s,49,2119164,2120332,49,,,,Sub1
task,mainTask,2,B,162,34,0,1149,S,H,i,l,s,57,2122094,2123243,49,,,,Sub1
task,mainTask,2,B,163,35,1,1310,S,H,i,g,s,48,2125120,2126430,48,,,,Sub1
task,mainTask,2,B,164,36,1,848,H,S,i,l,s,48,2128358,2129206,48,,,,Sub1
task,mainTask,2,B,165,37,1,1126,H,H,c,g,s,49,2131078,2132204,49,,,,Sub1
task,mainTask,2,B,166,38,1,955,S,S,c,l,s,48,2134131,2135086,48,,,,Sub1
task,mainTask,2,B,167,39,1,1306,H,S,i,l,r,48,2137003,2138309,48,,,,Sub1
task,mainTask,2,B,168,40,1,970,S,H,i,l,r,49,2140120,2141090,49,,,,Sub1
task,mainTask,2,B,169,41,1,1078,S,H,i,g,s,48,2142914,2143992,48,,,,Sub1
task,mainTask,2,B,170,42,0,,H,H,c,g,r,,2145911,,49,,,,Sub1
task,mainTask,2,B,171,43,1,1323,H,H,c,g,r,49,2149237,2150560,49,,,,Sub1
task,mainTask,2,B,172,44,1,836,S,S,c,l,s,48,2152485,2153321,48,,,,Sub1
task,mainTask,2,B,173,45,1,836,H,S,i,l,r,48,2155034,2155870,48,,,,Sub1
task,mainTask,2,B,174,46,0,,S,H,i,g,s,,2157700,,48,,,,Sub1
task,mainTask,2,B,175,47,1,971,S,S,c,l,s,48,2161049,2162020,48,,,,Sub1
task,mainTask,2,B,176,48,1,1036,H,S,i,g,s,49,2163782,2164818,49,,,,Sub1
task,mainTask,2,B,177,49,1,1163,S,H,i,l,s,49,2166696,2167859,49,,,,Sub1
task,mainTask,2,B,178,50,0,956,H,S,i,g,s,48,2169571,2170527,49,,,,Sub1
task,mainTask,2,B,179,51,1,992,S,H,i,l,s,49,2172450,2173442,49,,,,Sub1
task,mainTask,2,B,180,52,1,1224,S,S,c,g,s,48,2175314,2176538,48,,,,Sub1
task,mainTask,2,B,181,53,0,1237,H,S,i,l,s,49,2178471,2179708,48,,,,Sub1
task,mainTask,2,B,182,54,1,1136,H,S,i,g,s,49,2181479,2182615,49,,,,Sub1
task,mainTask,2,B,183,55,1,1202,H,S,i,g,r,49,2184543,2185745,49,,,,Sub1
task,mainTask,2,B,184,56,1,1143,S,H,i,l,s,49,2187667,2188810,49,,,,Sub1
task,mainTask,2,B,185,57,0,,S,H,i,g,s,,2190688,,48,,,,Sub1
task,mainTask,2,B,186,58,1,1149,S,H,i,g,r,48,2194097,2195246,48,,,,Sub1
task,mainTask,2,B,187,59,1,795,S,H,i,g,r,48,2197168,2197963,48,,,,Sub1
task,mainTask,2,B,188,60,0,1252,H,S,i,l,s,50,2199788,2201040,48,,,,Sub1
task,mainTask,2,B,189,61,1,1206,H,H,c,g,s,49,2202817,2204023,49,,,,Sub1
task,mainTask,2,B,190,62,1,1428,S,H,i,l,s,49,2205742,2207170,49,,,,Sub1
task,mainTask,2,B,191,63,1,1080,H,S,i,g,s,49,2209088,2210168,49,,,,Sub1
task,mainTask,2,B,192,64,1,1208,H,S,i,l,s,48,2212097,2213305,48,,,,Sub1
task,mainTask,2,B,193,65,1,1191,S,H,i,l,r,49,2215103,2216294,49,,,,Sub1
task,mainTask,2,B,194,66,1,1167,H,S,i,g,s,49,2218122,2219289,49,,,,Sub1
task,mainTask,2,B,195,67,1,976,H,H,c,l,s,49,2221107,2222083,49,,,,Sub1
task,mainTask,2,B,196,68,0,1044,H,S,i,g,s,48,2224000,2225044,49,,,,Sub1
task,mainTask,2,B,197,69,1,1239,H,S,i,g,r,49,2226866,2228105,49,,,,Sub1
task,mainTask,2,B,198,70,1,995,S,S,c,l,s,48,2229831,2230826,48,,,,Sub1
task,mainTask,2,B,199,71,1,1133,S,H,i,g,s,48,2232699,2233832,48,,,,Sub1
task,mainTask,2,B,200,72,1,959,S,H,i,g,r,48,2235600,2236559,48,,,,Sub1
task,mainTask,2,B,201,73,1,807,H,H,c,l,s,49,2238380,2239187,49,,,,Sub1
task,mainTask,2,B,202,74,1,905,S,H,i,g,s,48,2240922,2241827,48,,,,Sub1
task,mainTask,2,B,203,75,1,1166,S,S,c,l,s,48,2243565,2244731,48,,,,Sub1
task,mainTask,2,B,204,76,1,828,H,S,i,g,s,49,2246543,2247371,49,,,,Sub1
task,mainTask,2,B,205,77,1,1071,S,H,i,l,s,49,2249242,2250313,49,,,,Sub1
task,mainTask,2,B,206,78,1,792,S,H,i,g,s,48,2252186,2252978,48,,,,Sub1
task,mainTask,2,B,207,79,1,856,H,S,i,l,s,48,2254848,2255704,48,,,,Sub1
task,mainTask,2,B,208,80,0,904,H,S,i,l,r,49,2257581,2258485,48,,,,Sub1
task,mainTask,2,B,209,81,1,979,S,H,i,g,s,48,2260210,2261189,48,,,,Sub1
task,mainTask,2,B,210,82,1,934,S,S,c,l,s,48,2262913,2263847,48,,,,Sub1
task,mainTask,2,B,211,83,1,972,H,S,i,g,s,49,2265721,2266693,49,,,,Sub1
task,mainTask,2,B,212,84,1,917,S,H,i,g,r,48,2268571,2269488,48,,,,Sub1
task,mainTask,2,B,213,85,0,,S,H,i,g,r,,2271203,,48,,,,Sub1
task,mainTask,2,B,214,86,1,853,S,S,c,l,s,48,2274542,2275395,48,,,,Sub1
task,mainTask,2,B,215,87,1,1489,S,H,i,g,s,48,2277121,2278610,48,,,,Sub1
task,mainTask,2,B,216,88,1,1158,H,S,i,l,s,48,2280323,2281481,48,,,,Sub1
task,mainTask,2,B,217,89,0,,H,S,i,g,s,,2283260,,49,,,,Sub1
task,mainTask,2,B,218,90,1,1107,H,S,i,l,s,48,2286595,2287702,48,,,,Sub1
task,mainTask,2,B,219,91,1,1079,H,S,i,l,r,48,2289467,2290546,48,,,,Sub1
task,mainTask,2,B,220,92,1,1082,S,S,c,g,s,48,2292373,2293455,48,,,,Sub1
task,mainTask,2,B,221,93,1,1070,S,H,i,l,s,49,2295181,2296251,49,,,,Sub1
task,mainTask,2,B,222,94,1,1355,S,H,i,g,s,48,2297971,2299326,48,,,,Sub1
task,mainTask,2,B,223,95,1,1146,S,H,i,l,s,49,2301103,2302249,49,,,,Sub1
task,mainTask,2,B,224,96,1,1072,S,H,i,g,s,48,2304114,2305186,48,,,,Sub1
task,mainTask,2,B,225,97,1,989,S,S,c,g,r,48,2306958,2307947,48,,,,Sub1
task,mainTask,2,B,226,98,1,975,S,H,i,l,s,49,2309883,2310858,49,,,,Sub1
task,mainTask,2,B,227,99,1,1424,H,H,c,g,s,49,2312791,2314215,49,,,,Sub1
task,mainTask,2,B,228,100,1,1164,S,S,c,l,s,48,2315982,2317146,48,,,,Sub1
task,mainTask,2,B,229,101,0,,S,H,i,g,s,,2319065,,48,,,,Sub1
task,mainTask,2,B,230,102,1,1143,H,H,c,l,s,49,2322490,2323633,49,,,,Sub1
task,mainTask,2,B,231,103,1,1350,S,H,i,g,s,48,2325414,2326764,48,,,,Sub1
task,mainTask,2,B,232,104,1,876,S,H,i,g,r,48,2328686,2329562,48,,,,Sub1
task,mainTask,2,B,233,105,0,964,H,S,i,l,s,49,2331290,2332254,48,,,,Sub1
task,mainTask,2,B,234,106,0,980,H,S,i,g,s,48,2334086,2335066,49,,,,Sub1
task,mainTask,2,B,235,107,1,912,H,S,i,l,s,48,2336791,2337703,48,,,,Sub1
task,mainTask,2,B,236,108,1,1172,S,S,c,l,r,48,2339520,2340692,48,,,,Sub1
task,mainTask,2,B,237,109,1,1058,S,H,i,l,r,49,2342559,2343617,49,,,,Sub1
task,mainTask,2,B,238,110,1,814,H,H,c,l,r,49,2345404,2346218,49,,,,Sub1
task,mainTask,2,B,239,111,1,889,H,S,i,l,r,48,2348043,2348932,48,,,,Sub1
task,mainTask,2,B,240,112,1,806,H,S,i,l,r,48,2350759,2351565,48,,,,Sub1
task,mainTask,2,B,241,113,1,1118,H,S,i,g,s,49,2353385,2354503,49,,,,Sub1
task,mainTask,2,B,242,114,1,1082,S,H,i,l,s,49,2356370,2357452,49,,,,Sub1
task,mainTask,2,B,243,115,1,859,H,H,c,g,s,49,2359179,2360038,49,,,,Sub1
task,mainTask,2,B,244,116,1,933,H,S,i,l,s,48,2361917,2362850,48,,,,Sub1
task,mainTask,2,B,245,117,1,1180,S,H,i,l,r,49,2364674,2365854,49,,,,Sub1
task,mainTask,2,B,246,118,1,1015,S,H,i,g,s,48,2367683,2368698,48,,,,Sub1
task,mainTask,2,B,247,119,1,1317,H,S,i,l,s,48,2370438,2371755,48,,,,Sub1
task,mainTask,2,B,248,120,1,807,H,H,c,g,s,49,2373577,2374384,49,,,,Sub1
task,mainTask,2,B,249,121,1,1249,S,H,i,l,s,49,2376117,2377366,49,,,,Sub1
task,mainTask,2,B,250,122,1,866,S,S,c,g,s,48,2379085,2379951,48,,,,Sub1
task,mainTask,2,B,251,123,1,1100,H,S,i,l,s,48,2381879,2382979,48,,,,Sub1
task,mainTask,2,B,252,124,1,787,S,S,c,g,s,48,2384701,2385488,48,,,,Sub1
task,mainTask,2,B,253,125,1,1059,S,H,i,l,s,49,2387313,2388372,49,,,,Sub1
task,mainTask,2,B,254,126,1,879,S,H,i,g,s,48,2390249,2391128,48,,,,Sub1
task,mainTask,2,B,255,127,1,1200,H,S,i,l,s,48,2393007,2394207,48,,,,Sub1
task,mainTask,2,B,256,128,1,726,H,S,i,l,r,48,2395946,2396672,48,,,,Sub1
feedback,bigBlock,3,D,,,,,,,,,,,,,,2398033,2402869,4836,Sub1
task,mainTask,3,D,257,1,0,986,S,S,c,l,n,112,2406404,2407390,48,,,,Sub1
task,mainTask,3,D,258,2,0,,S,S,c,g,s,,2409312,,48,,,,Sub1
task,mainTask,3,D,259,3,1,1229,S,H,i,g,r,48,2412565,2413794,48,,,,Sub1
task,mainTask,3,D,260,4,1,1095,H,H,c,l,s,49,2415727,2416822,49,,,,Sub1
task,mainTask,3,D,261,5,1,1402,H,H,c,g,s,49,2418603,2420005,49,,,,Sub1
task,mainTask,3,D,262,6,1,770,S,S,c,g,r,48,2421730,2422500,48,,,,Sub1
task,mainTask,3,D,263,7,1,888,H,H,c,l,s,49,2424332,2425220,49,,,,Sub1
task,mainTask,3,D,264,8,1,911,H,H,c,g,s,49,2427093,2428004,49,,,,Sub1
task,mainTask,3,D,265,9,1,773,H,H,c,g,r,49,2429936,2430709,49,,,,Sub1
task,mainTask,3,D,266,10,1,873,H,H,c,l,s,49,2432645,2433518,49,,,,Sub1
task,mainTask,3,D,267,11,1,752,S,S,c,g,s,48,2435448,2436200,48,,,,Sub1
task,mainTask,3,D,268,12,1,751,H,H,c,l,s,49,2437980,2438731,49,,,,Sub1
task,mainTask,3,D,269,13,1,810,S,S,c,g,s,48,2440647,2441457,48,,,,Sub1
task,mainTask,3,D,270,14,0,1058,H,S,i,l,s,49,2443387,2444445,48,,,,Sub1
task,mainTask,3,D,271,15,1,1024,H,S,i,g,s,49,2446272,2447296,49,,,,Sub1
task,mainTask,3,D,272,16,1,1017,S,S,c,l,s,48,2449118,2450135,48,,,,Sub1
task,mainTask,3,D,273,17,1,669,H,H,c,l,r,49,2451906,2452575,49,,,,Sub1
task,mainTask,3,D,274,18,1,927,H,H,c,g,s,49,2454347,2455274,49,,,,Sub1
task,mainTask,3,D,275,19,1,714,S,S,c,l,s,48,2457158,2457872,48,,,,Sub1
task,mainTask,3,D,276,20,0,1264,S,H,i,g,s,49,2459734,2460998,48,,,,Sub1
task,mainTask,3,D,277,21,1,816,H,H,c,l,s,49,2462865,2463681,49,,,,Sub1
task,mainTask,3,D,278,22,1,1215,H,S,i,l,r,48,2465554,2466769,48,,,,Sub1
task,mainTask,3,D,279,23,1,847,H,S,i,l,r,48,2468503,2469350,48,,,,Sub1
task,mainTask,3,D,280,24,0,1240,S,H,i,l,r,50,2471223,2472463,49,,,,Sub1
task,mainTask,3,D,281,25,0,946,S,H,i,g,s,49,2474382,2475328,48,,,,Sub1
task,mainTask,3,D,282,26,1,1070,H,H,c,l,s,49,2477045,2478115,49,,,,Sub1
task,mainTask,3,D,283,27,0,1360,S,S,c,l,r,49,2480036,2481396,48,,,,Sub1
task,mainTask,3,D,284,28,1,915,S,S,c,g,s,48,2483172,2484087,48,,,,Sub1
task,mainTask,3,D,285,29,1,1092,S,S,c,l,s,48,2485806,2486898,48,,,,Sub1
task,mainTask,3,D,286,30,0,1099,S,H,i,g,s,49,2488681,2489780,48,,,,Sub1
task,mainTask,3,D,287,31,1,772,S,S,c,l,s,48,2491698,2492470,48,,,,Sub1
task,mainTask,3,D,288,32,1,1102,S,S,c,g,s,48,2494207,2495309,48,,,,Sub1
task,mainTask,3,D,289,33,0,782,H,H,c,l,s,50,2497086,2497868,49,,,,Sub1
task,mainTask,3,D,290,34,1,1387,H,H,c,g,s,49,2499780,2501167,49,,,,Sub1
task,mainTask,3,D,291,35,1,1049,H,H,c,l,s,49,2502933,2503982,49,,,,Sub1
task,mainTask,3,D,292,36,1,721,S,S,c,g,s,48,2505908,2506629,48,,,,Sub1
task,mainTask,3,D,293,37,1,774,H,H,c,l,s,49,2508504,2509278,49,,,,Sub1
task,mainTask,3,D,294,38,1,1046,S,S,c,g,s,48,2511153,2512199,48,,,,Sub1
task,mainTask,3,D,295,39,1,859,S,S,c,l,s,48,2514035,2514894,48,,,,Sub1
task,mainTask,3,D,296,40,1,1272,H,H,c,g,s,49,2516608,2517880,49,,,,Sub1
task,mainTask,3,D,297,41,1,706,H,H,c,l,s,49,2519649,2520355,49,,,,Sub1
task,mainTask,3,D,298,42,1,731,S,S,c,g,s,48,2522177,2522908,48,,,,Sub1
task,mainTask,3,D,299,43,1,815,S,S,c,g,r,48,2524835,2525650,48,,,,Sub1
task,mainTask,3,D,300,44,1,832,H,H,c,l,s,49,2527576,2528408,49,,,,Sub1
task,mainTask,3,D,301,45,0,,H,S,i,l,r,,2530278,,48,,,,Sub1
task,mainTask,3,D,302,46,1,918,S,S,c,g,s,48,2533671,2534589,48,,,,Sub1
task,mainTask,3,D,303,47,1,774,S,S,c,l,s,48,2536373,2537147,48,,,,Sub1
task,mainTask,3,D,304,48,1,921,H,H,c,g,s,49,2538913,2539834,49,,,,Sub1
task,mainTask,3,D,305,49,1,1462,H,S,i,l,s,48,2541631,2543093,48,,,,Sub1
task,mainTask,3,D,306,50,0,799,H,S,i,g,s,48,2544913,2545712,49,,,,Sub1
task,mainTask,3,D,307,51,1,887,S,S,c,g,r,48,2547631,2548518,48,,,,Sub1
task,mainTask,3,D,308,52,1,913,H,H,c,l,s,49,2550351,2551264,49,,,,Sub1
task,mainTask,3,D,309,53,1,1254,H,S,i,g,s,49,2553002,2554256,49,,,,Sub1
task,mainTask,3,D,310,54,1,1089,H,H,c,l,s,49,2556136,2557225,49,,,,Sub1
task,mainTask,3,D,311,55,1,809,S,S,c,g,s,48,2558954,2559763,48,,,,Sub1
task,mainTask,3,D,312,56,0,1237,S,S,c,l,s,49,2561485,2562722,48,,,,Sub1
task,mainTask,3,D,313,57,1,1033,S,S,c,g,s,48,2564646,2565679,48,,,,Sub1
task,mainTask,3,D,314,58,1,1093,H,H,c,g,r,49,2567594,2568687,49,,,,Sub1
task,mainTask,3,D,315,59,1,743,H,H,c,g,r,49,2570567,2571310,49,,,,Sub1
task,mainTask,3,D,316,60,0,1471,S,H,i,l,s,48,2573187,2574658,49,,,,Sub1
task,mainTask,3,D,317,61,1,909,H,H,c,g,s,49,2576586,2577495,49,,,,Sub1
task,mainTask,3,D,318,62,1,1061,H,H,c,l,s,49,2579262,2580323,49,,,,Sub1
task,mainTask,3,D,319,63,1,855,S,S,c,g,s,48,2582152,2583007,48,,,,Sub1
task,mainTask,3,D,320,64,0,1232,S,H,i,g,r,49,2584930,2586162,48,,,,Sub1
task,mainTask,3,D,321,65,1,873,S,S,c,g,r,48,2588090,2588963,48,,,,Sub1
task,mainTask,3,D,322,66,0,1006,H,H,c,g,r,48,2590853,2591859,49,,,,Sub1
task,mainTask,3,D,323,67,1,931,S,S,c,g,r,48,2593732,2594663,48,,,,Sub1
task,mainTask,3,D,324,68,1,1037,H,H,c,l,s,49,2596488,2597525,49,,,,Sub1
task,mainTask,3,D,325,69,1,682,H,H,c,l,r,49,2599306,2599988,49,,,,Sub1
task,mainTask,3,D,326,70,1,1083,H,S,i,g,s,49,2601823,2602906,49,,,,Sub1
task,mainTask,3,D,327,71,0,,H,H,c,l,s,,2604762,,49,,,,Sub1
task,mainTask,3,D,328,72,1,980,H,H,c,g,s,49,2608049,2609029,49,,,,Sub1
task,mainTask,3,D,329,73,1,797,H,H,c,l,s,49,2610917,2611714,49,,,,Sub1
task,mainTask,3,D,330,74,1,797,H,H,c,g,s,49,2613650,2614447,49,,,,Sub1
task,mainTask,3,D,331,75,0,976,H,S,i,l,s,49,2616370,2617346,48,,,,Sub1
task,mainTask,3,D,332,76,1,795,H,S,i,g,s,49,2619111,2619906,49,,,,Sub1
task,mainTask,3,D,333,77,1,945,S,S,c,l,s,48,2621732,2622677,48,,,,Sub1
task,mainTask,3,D,334,78,1,1220,H,H,c,l,r,49,2624507,2625727,49,,,,Sub1
task,mainTask,3,D,335,79,0,965,H,S,i,g,s,48,2627497,2628462,49,,,,Sub1
task,mainTask,3,D,336,80,1,661,H,S,i,g,r,49,2630348,2631009,49,,,,Sub1
task,mainTask,3,D,337,81,1,659,S,S,c,l,s,48,2632783,2633442,48,,,,Sub1
task,mainTask,3,D,338,82,1,949,S,S,c,l,r,48,2635363,2636312,48,,,,Sub1
task,mainTask,3,D,339,83,1,888,S,S,c,g,s,48,2638101,2638989,48,,,,Sub1
task,mainTask,3,D,340,84,1,1162,S,H,i,l,s,49,2640822,2641984,49,,,,Sub1
task,mainTask,3,D,341,85,1,858,H,H,c,g,s,49,2643716,2644574,49,,,,Sub1
task,mainTask,3,D,342,86,1,1040,S,S,c,l,s,48,2646447,2647487,48,,,,Sub1
task,mainTask,3,D,343,87,1,948,H,H,c,l,r,49,2649317,2650265,49,,,,Sub1
task,mainTask,3,D,344,88,1,747,H,H,c,l,r,49,2652100,2652847,49,,,,Sub1
task,mainTask,3,D,345,89,1,748,S,S,c,g,s,48,2654780,2655528,48,,,,Sub1
task,mainTask,3,D,346,90,1,699,H,H,c,g,r,49,2657357,2658056,49,,,,Sub1
task,mainTask,3,D,347,91,1,695,H,H,c,l,s,49,2659925,2660620,49,,,,Sub1
task,mainTask,3,D,348,92,1,785,H,S,i,l,r,48,2662503,2663288,48,,,,Sub1
task,mainTask,3,D,349,93,1,916,S,S,c,g,s,48,2665218,2666134,48,,,,Sub1
task,mainTask,3,D,350,94,1,774,H,H,c,l,s,49,2667856,2668630,49,,,,Sub1
task,mainTask,3,D,351,95,1,624,H,H,c,g,s,49,2670359,2670983,49,,,,Sub1
task,mainTask,3,D,352,96,1,1105,H,S,i,l,s,48,2672847,2673952,48,,,,Sub1
task,mainTask,3,D,353,97,1,984,H,H,c,g,s,49,2675724,2676708,49,,,,Sub1
task,mainTask,3,D,354,98,1,1066,H,S,i,l,s,48,2678451,2679517,48,,,,Sub1
task,mainTask,3,D,355,99,0,735,H,H,c,l,r,48,2681246,2681981,49,,,,Sub1
task,mainTask,3,D,356,100,1,996,S,H,i,g,s,48,2683706,2684702,48,,,,Sub1
task,mainTask,3,D,357,101,0,938,H,S,i,g,r,48,2686644,2687582,49,,,,Sub1
task,mainTask,3,D,358,102,1,984,S,S,c,l,s,48,2689459,2690443,48,,,,Sub1
task,mainTask,3,D,359,103,1,1022,S,S,c,g,s,48,2692222,2693244,48,,,,Sub1
task,mainTask,3,D,360,104,1,902,H,H,c,l,s,49,2695133,2696035,49,,,,Sub1
task,mainTask,3,D,361,105,1,735,H,H,c,g,s,49,2697855,2698590,49,,,,Sub1
task,mainTask,3,D,362,106,1,786,S,S,c,g,r,48,2700424,2701210,48,,,,Sub1
task,mainTask,3,D,363,107,1,1017,S,S,c,l,s,48,2703082,2704099,48,,,,Sub1
task,mainTask,3,D,364,108,1,1077,S,H,i,l,r,49,2705973,2707050,49,,,,Sub1
task,mainTask,3,D,365,109,0,967,H,S,i,g,s,48,2708829,2709796,49,,,,Sub1
task,mainTask,3,D,366,110,1,830,S,S,c,g,r,48,2711525,2712355,48,,,,Sub1
task,mainTask,3,D,367,111,1,908,H,H,c,l,s,49,2714229,2715137,49,,,,Sub1
task,mainTask,3,D,368,112,0,1257,S,H,i,l,r,48,2717029,2718286,49,,,,Sub1
task,mainTask,3,D,369,113,1,1118,H,H,c,g,s,49,2720202,2721320,49,,,,Sub1
task,mainTask,3,D,370,114,0,879,H,H,c,l,s,50,2723244,2724123,49,,,,Sub1
task,mainTask,3,D,371,115,1,1469,S,H,i,g,s,48,2726056,2727525,48,,,,Sub1
task,mainTask,3,D,372,116,1,1204,S,S,c,l,s,48,2729388,2730592,48,,,,Sub1
task,mainTask,3,D,373,117,1,1281,H,H,c,l,r,49,2732523,2733804,49,,,,Sub1
task,mainTask,3,D,374,118,1,1100,H,H,c,g,s,49,2735642,2736742,49,,,,Sub1
task,mainTask,3,D,375,119,1,947,S,S,c,l,s,48,2738466,2739413,48,,,,Sub1
task,mainTask,3,D,376,120,1,875,H,H,c,g,s,49,2741297,2742172,49,,,,Sub1
task,mainTask,3,D,377,121,1,949,S,S,c,l,s,48,2743908,2744857,48,,,,Sub1
task,mainTask,3,D,378,122,1,905,S,S,c,g,s,48,2746702,2747607,48,,,,Sub1
task,mainTask,3,D,379,123,1,827,H,H,c,l,s,49,2749499,2750326,49,,,,Sub1
task,mainTask,3,D,380,124,1,693,S,S,c,g,s,48,2752146,2752839,48,,,,Sub1
task,mainTask,3,D,381,125,1,849,S,S,c,l,s,48,2754579,2755428,48,,,,Sub1
task,mainTask,3,D,382,126,1,1103,H,S,i,g,s,49,2757301,2758404,49,,,,Sub1
task,mainTask,3,D,383,127,1,816,S,S,c,l,s,48,2760140,2760956,48,,,,Sub1
task,mainTask,3,D,384,128,1,1390,S,H,i,g,s,48,2762786,2764176,48,,,,Sub1
feedback,bigBlock,4,C,,,,,,,,,,,,,,2765595,2768423,2828,Sub1
task,mainTask,4,C,385,1,0,1127,S,H,i,l,n,48,2771975,2773102,49,,,,Sub1
task,mainTask,4,C,386,2,1,884,H,H,c,l,r,49,2774890,2775774,49,,,,Sub1
task,mainTask,4,C,387,3,1,813,S,S,c,g,s,48,2777712,2778525,48,,,,Sub1
task,mainTask,4,C,388,4,0,1129,H,S,i,g,r,48,2780350,2781479,49,,,,Sub1
task,mainTask,4,C,389,5,0,1464,S,H,i,l,s,48,2783261,2784725,49,,,,Sub1
task,mainTask,4,C,390,6,1,1135,S,S,c,l,r,48,2786596,2787731,48,,,,Sub1
task,mainTask,4,C,391,7,1,1018,S,S,c,l,r,48,2789541,2790559,48,,,,Sub1
task,mainTask,4,C,392,8,1,934,S,S,c,g,s,48,2792341,2793275,48,,,,Sub1
task,mainTask,4,C,393,9,1,915,H,H,c,g,r,49,2795212,2796127,49,,,,Sub1
task,mainTask,4,C,394,10,1,934,S,S,c,g,r,48,2797848,2798782,48,,,,Sub1
task,mainTask,4,C,395,11,1,756,H,H,c,g,r,49,2800622,2801378,49,,,,Sub1
task,mainTask,4,C,396,12,1,931,S,H,i,g,r,48,2803099,2804030,48,,,,Sub1
task,mainTask,4,C,397,13,1,1091,H,H,c,g,r,49,2805910,2807001,49,,,,Sub1
task,mainTask,4,C,398,14,1,854,H,S,i,g,r,49,2808722,2809576,49,,,,Sub1
task,mainTask,4,C,399,15,1,795,S,S,c,g,r,48,2811345,2812140,48,,,,Sub1
task,mainTask,4,C,400,16,1,719,H,H,c,l,s,49,2813956,2814675,49,,,,Sub1
task,mainTask,4,C,401,17,1,688,S,H,i,g,s,48,2816411,2817099,48,,,,Sub1
task,mainTask,4,C,402,18,1,891,H,S,i,g,r,49,2819029,2819920,49,,,,Sub1
task,mainTask,4,C,403,19,1,887,H,S,i,g,r,49,2821758,2822645,49,,,,Sub1
task,mainTask,4,C,404,20,1,706,H,H,c,g,r,49,2824519,2825225,49,,,,Sub1
task,mainTask,4,C,405,21,1,787,S,S,c,g,r,48,2827154,2827941,48,,,,Sub1
task,mainTask,4,C,406,22,1,775,S,S,c,l,s,48,2829825,2830600,48,,,,Sub1
task,mainTask,4,C,407,23,1,712,H,H,c,l,r,49,2832436,2833148,49,,,,Sub1
task,mainTask,4,C,408,24,0,810,S,H,i,l,r,48,2834865,2835675,49,,,,Sub1
task,mainTask,4,C,409,25,1,892,H,S,i,l,r,48,2837551,2838443,48,,,,Sub1
task,mainTask,4,C,410,26,1,750,H,H,c,l,r,49,2840290,2841040,49,,,,Sub1
task,mainTask,4,C,411,27,1,712,S,S,c,g,s,48,2842962,2843674,48,,,,Sub1
task,mainTask,4,C,412,28,1,807,S,S,c,g,r,48,2845554,2846361,48,,,,Sub1
task,mainTask,4,C,413,29,1,1263,S,S,c,g,r,48,2848182,2849445,48,,,,Sub1
task,mainTask,4,C,414,30,1,763,H,H,c,g,r,49,2851280,2852043,49,,,,Sub1
task,mainTask,4,C,415,31,1,820,S,H,i,g,r,48,2853768,2854588,48,,,,Sub1
task,mainTask,4,C,416,32,1,801,H,H,c,g,r,49,2856514,2857315,49,,,,Sub1
task,mainTask,4,C,417,33,0,728,S,H,i,l,s,48,2859145,2859873,49,,,,Sub1
task,mainTask,4,C,418,34,1,859,H,H,c,l,r,49,2861596,2862455,49,,,,Sub1
task,mainTask,4,C,419,35,0,731,S,H,i,l,r,48,2864387,2865118,49,,,,Sub1
task,mainTask,4,C,420,36,1,830,S,S,c,l,r,48,2866957,2867787,48,,,,Sub1
task,mainTask,4,C,421,37,1,824,S,S,c,l,r,48,2869565,2870389,48,,,,Sub1
task,mainTask,4,C,422,38,1,931,H,H,c,l,r,49,2872308,2873239,49,,,,Sub1
task,mainTask,4,C,423,39,1,747,H,H,c,l,r,49,2874979,2875726,49,,,,Sub1
task,mainTask,4,C,424,40,0,823,H,H,c,g,s,48,2877499,2878322,49,,,,Sub1
task,mainTask,4,C,425,41,1,780,S,S,c,g,r,48,2880195,2880975,48,,,,Sub1
task,mainTask,4,C,426,42,1,710,S,S,c,g,r,48,2882697,2883407,48,,,,Sub1
task,mainTask,4,C,427,43,1,824,H,S,i,g,r,49,2885320,2886144,49,,,,Sub1
task,mainTask,4,C,428,44,1,774,S,H,i,g,r,48,2887920,2888694,48,,,,Sub1
task,mainTask,4,C,429,45,0,683,S,S,c,g,r,49,2890467,2891150,48,,,,Sub1
task,mainTask,4,C,430,46,1,918,S,S,c,g,r,48,2893040,2893958,48,,,,Sub1
task,mainTask,4,C,431,47,0,869,S,S,c,l,s,49,2895786,2896655,48,,,,Sub1
task,mainTask,4,C,432,48,1,788,H,H,c,l,r,49,2898583,2899371,49,,,,Sub1
task,mainTask,4,C,433,49,1,831,S,S,c,l,r,48,2901190,2902021,48,,,,Sub1
task,mainTask,4,C,434,50,1,677,S,S,c,l,r,48,2903851,2904528,48,,,,Sub1
task,mainTask,4,C,435,51,1,659,S,S,c,l,r,48,2906303,2906962,48,,,,Sub1
task,mainTask,4,C,436,52,1,726,H,H,c,l,r,49,2908749,2909475,49,,,,Sub1
task,mainTask,4,C,437,53,0,,H,H,c,l,r,,2911400,,49,,,,Sub1
task,mainTask,4,C,438,54,1,816,H,H,c,l,r,49,2914792,2915608,49,,,,Sub1
task,mainTask,4,C,439,55,1,937,H,H,c,g,s,49,2917529,2918466,49,,,,Sub1
task,mainTask,4,C,440,56,1,779,H,H,c,l,s,49,2920242,2921021,49,,,,Sub1
task,mainTask,4,C,441,57,1,663,H,H,c,l,r,49,2922957,2923620,49,,,,Sub1
task,mainTask,4,C,442,58,0,927,H,S,i,l,r,49,2925450,2926377,48,,,,Sub1
task,mainTask,4,C,443,59,1,859,S,H,i,g,s,48,2928295,2929154,48,,,,Sub1
task,mainTask,4,C,444,60,1,853,H,S,i,l,s,48,2930938,2931791,48,,,,Sub1
task,mainTask,4,C,445,61,1,712,S,S,c,l,r,48,2933563,2934275,48,,,,Sub1
task,mainTask,4,C,446,62,1,706,H,H,c,l,r,49,2936155,2936861,49,,,,Sub1
task,mainTask,4,C,447,63,0,670,H,S,i,g,s,48,2938683,2939353,49,,,,Sub1
task,mainTask,4,C,448,64,1,791,S,S,c,g,r,48,2941227,2942018,48,,,,Sub1
task,mainTask,4,C,449,65,1,818,S,S,c,g,r,48,2943889,2944707,48,,,,Sub1
task,mainTask,4,C,450,66,1,716,H,H,c,l,s,49,2946434,2947150,49,,,,Sub1
task,mainTask,4,C,451,67,0,,H,H,c,l,r,,2948929,,49,,,,Sub1
task,mainTask,4,C,452,68,1,763,H,H,c,l,r,49,2952349,2953112,49,,,,Sub1
task,mainTask,4,C,453,69,0,719,S,H,i,l,r,48,2954982,2955701,49,,,,Sub1
task,mainTask,4,C,454,70,1,879,S,H,i,g,s,48,2957518,2958397,48,,,,Sub1
task,mainTask,4,C,455,71,1,731,S,S,c,g,r,48,2960225,2960956,48,,,,Sub1
task,mainTask,4,C,456,72,1,757,H,H,c,g,r,49,2962728,2963485,49,,,,Sub1
task,mainTask,4,C,457,73,0,743,S,S,c,l,s,57,2965261,2966004,48,,,,Sub1
task,mainTask,4,C,458,74,0,921,H,S,i,l,r,49,2967770,2968691,48,,,,Sub1
task,mainTask,4,C,459,75,1,760,H,S,i,l,r,48,2970571,2971331,48,,,,Sub1
task,mainTask,4,C,460,76,0,768,S,S,c,l,r,49,2973145,2973913,48,,,,Sub1
task,mainTask,4,C,461,77,1,1105,S,H,i,l,r,49,2975697,2976802,49,,,,Sub1
task,mainTask,4,C,462,78,1,758,S,S,c,l,r,48,2978671,2979429,48,,,,Sub1
task,mainTask,4,C,463,79,1,853,H,H,c,g,s,49,2981164,2982017,49,,,,Sub1
task,mainTask,4,C,464,80,1,694,S,S,c,g,r,48,2983941,2984635,48,,,,Sub1
task,mainTask,4,C,465,81,1,722,S,S,c,g,r,48,2986358,2987080,48,,,,Sub1
task,mainTask,4,C,466,82,1,662,S,S,c,g,r,48,2989000,2989662,48,,,,Sub1
task,mainTask,4,C,467,83,1,733,S,S,c,g,r,48,2991540,2992273,48,,,,Sub1
task,mainTask,4,C,468,84,1,691,S,S,c,g,r,48,2994052,2994743,48,,,,Sub1
task,mainTask,4,C,469,85,1,689,S,S,c,g,r,48,2996474,2997163,48,,,,Sub1
task,mainTask,4,C,470,86,1,817,H,H,c,g,r,49,2999036,2999853,49,,,,Sub1
task,mainTask,4,C,471,87,1,1008,H,H,c,g,r,49,3001791,3002799,49,,,,Sub1
task,mainTask,4,C,472,88,1,715,S,H,i,g,r,48,3004625,3005340,48,,,,Sub1
task,mainTask,4,C,473,89,1,716,H,H,c,l,s,49,3007279,3007995,49,,,,Sub1
task,mainTask,4,C,474,90,1,689,S,S,c,l,r,48,3009925,3010614,48,,,,Sub1
task,mainTask,4,C,475,91,1,697,H,H,c,l,r,49,3012541,3013238,49,,,,Sub1
task,mainTask,4,C,476,92,1,688,S,S,c,l,r,48,3015055,3015743,48,,,,Sub1
task,mainTask,4,C,477,93,1,697,H,H,c,g,s,49,3017672,3018369,49,,,,Sub1
task,mainTask,4,C,478,94,1,720,H,H,c,g,r,49,3020119,3020839,49,,,,Sub1
task,mainTask,4,C,479,95,1,734,S,S,c,g,r,48,3022614,3023348,48,,,,Sub1
task,mainTask,4,C,480,96,1,701,H,H,c,l,s,49,3025124,3025825,49,,,,Sub1
task,mainTask,4,C,481,97,1,806,S,S,c,l,r,48,3027647,3028453,48,,,,Sub1
task,mainTask,4,C,482,98,1,693,S,S,c,l,r,48,3030291,3030984,48,,,,Sub1
task,mainTask,4,C,483,99,1,1109,S,H,i,l,r,49,3032861,3033970,49,,,,Sub1
task,mainTask,4,C,484,100,1,1175,H,H,c,g,s,49,3035694,3036869,49,,,,Sub1
task,mainTask,4,C,485,101,0,744,H,S,i,g,r,48,3038791,3039535,49,,,,Sub1
task,mainTask,4,C,486,102,1,872,S,H,i,g,r,48,3041276,3042148,48,,,,Sub1
task,mainTask,4,C,487,103,1,766,H,H,c,g,r,49,3043923,3044689,49,,,,Sub1
task,mainTask,4,C,488,104,1,689,S,S,c,l,s,48,3046614,3047303,48,,,,Sub1
task,mainTask,4,C,489,105,0,771,H,H,c,l,r,50,3049176,3049947,49,,,,Sub1
task,mainTask,4,C,490,106,1,786,S,S,c,g,s,48,3051732,3052518,48,,,,Sub1
task,mainTask,4,C,491,107,1,894,S,H,i,g,r,48,3054300,3055194,48,,,,Sub1
task,mainTask,4,C,492,108,1,788,S,H,i,l,s,49,3056922,3057710,49,,,,Sub1
task,mainTask,4,C,493,109,1,710,H,H,c,l,r,49,3059543,3060253,49,,,,Sub1
task,mainTask,4,C,494,110,1,717,S,S,c,l,r,48,3061977,3062694,48,,,,Sub1
task,mainTask,4,C,495,111,1,709,S,S,c,g,s,48,3064517,3065226,48,,,,Sub1
task,mainTask,4,C,496,112,1,788,S,S,c,g,r,48,3066998,3067786,48,,,,Sub1
task,mainTask,4,C,497,113,1,1146,H,H,c,g,r,49,3069611,3070757,49,,,,Sub1
task,mainTask,4,C,498,114,1,703,H,H,c,l,s,49,3072583,3073286,49,,,,Sub1
task,mainTask,4,C,499,115,1,750,H,S,i,l,r,48,3075017,3075767,48,,,,Sub1
task,mainTask,4,C,500,116,1,931,H,H,c,l,r,49,3077496,3078427,49,,,,Sub1
task,mainTask,4,C,501,117,1,607,H,H,c,l,r,49,3080255,3080862,49,,,,Sub1
task,mainTask,4,C,502,118,1,622,H,H,c,l,r,49,3082655,3083277,49,,,,Sub1
task,mainTask,4,C,503,119,1,607,H,H,c,l,r,49,3085066,3085673,49,,,,Sub1
task,mainTask,4,C,504,120,1,742,S,S,c,g,s,48,3087449,3088191,48,,,,Sub1
task,mainTask,4,C,505,121,0,669,S,S,c,l,s,57,3090012,3090681,48,,,,Sub1
task,mainTask,4,C,506,122,1,710,H,H,c,l,r,49,3092466,3093176,49,,,,Sub1
task,mainTask,4,C,507,123,1,1226,S,S,c,l,r,48,3095051,3096277,48,,,,Sub1
task,mainTask,4,C,508,124,1,739,S,S,c,g,s,48,3098004,3098743,48,,,,Sub1
task,mainTask,4,C,509,125,1,634,S,S,c,g,r,48,3100519,3101153,48,,,,Sub1
task,mainTask,4,C,510,126,1,744,H,H,c,g,r,49,3102877,3103621,49,,,,Sub1
task,mainTask,4,C,511,127,1,1099,H,S,i,g,r,49,3105397,3106496,49,,,,Sub1
task,mainTask,4,C,512,128,1,835,S,S,c,g,r,48,3108229,3109064,48,,,,Sub1
prac1-1,instructions,1,,,,,,,,,,,,,,,4,27344,27340,Sub2
prac1-2,instructions,1,,,,,,,,,,,,,,,27345,53234,25889,Sub2
task,pracTask,1,,1,1,0,,H,S,i,l,n,,56749,,48,,,,Sub2
task,pracTask,1,,2,2,0,1383,H,S,i,l,r,49,60004,61387,48,,,,Sub2
task,pracTask,1,,3,3,1,718,S,H,i,l,r,49,63268,63986,49,,,,Sub2
task,pracTask,1,,4,4,1,554,H,H,c,l,r,49,65864,66418,49,,,,Sub2
task,pracTask,1,,5,5,1,565,H,H,c,l,r,49,68413,68978,49,,,,Sub2
task,pracTask,1,,6,6,1,514,H,H,c,l,r,49,71040,71554,49,,,,Sub2
task,pracTask,1,,7,7,1,534,S,S,c,l,r,48,73412,73946,48,,,,Sub2
task,pracTask,1,,8,8,1,499,H,H,c,l,r,49,75936,76435,49,,,,Sub2
task,pracTask,1,,9,9,1,457,H,H,c,l,r,49,78449,78906,49,,,,Sub2
task,pracTask,1,,10,10,1,1095,H,S,i,l,r,48,80835,81930,48,,,,Sub2
task,pracTask,1,,11,11,1,491,S,S,c,l,r,48,83792,84283,48,,,,Sub2
task,pracTask,1,,12,12,1,607,H,S,i,l,r,48,86243,86850,48,,,,Sub2
task,pracTask,1,,13,13,1,563,H,S,i,l,r,48,88903,89466,48,,,,Sub2
task,pracTask,1,,14,14,1,523,H,H,c,l,r,49,91455,91978,49,,,,Sub2
task,pracTask,1,,15,15,1,1009,S,H,i,l,r,49,94049,95058,49,,,,Sub2
task,pracTask,1,,16,16,1,524,H,S,i,l,r,48,97087,97611,48,,,,Sub2
prac1-2,pracFeedback,1,,,,,,,,,,,,,,,99170,102010,2840,Sub2
prac2,instructions,1,,,,,,,,,,,,,,,102010,110641,8631,Sub2
task,pracTask,1,,1,1,1,1036,S,S,c,g,n,48,114158,115194,48,,,,Sub2
task,pracTask,1,,2,2,1,506,S,S,c,g,r,48,117265,117771,48,,,,Sub2
task,pracTask,1,,3,3,1,568,H,S,i,g,r,49,119642,120210,49,,,,Sub2
task,pracTask,1,,4,4,0,419,S,H,i,g,r,49,122256,122675,48,,,,Sub2
task,pracTask,1,,5,5,1,735,H,S,i,g,r,49,124571,125306,49,,,,Sub2
task,pracTask,1,,6,6,1,656,S,H,i,g,r,48,127170,127826,48,,,,Sub2
task,pracTask,1,,7,7,1,503,S,H,i,g,r,48,129723,130226,48,,,,Sub2
task,pracTask,1,,8,8,1,588,S,S,c,g,r,48,132174,132762,48,,,,Sub2
task,pracTask,1,,9,9,1,592,H,H,c,g,r,49,134618,135210,49,,,,Sub2
task,pracTask,1,,10,10,1,596,S,S,c,g,r,48,137257,137853,48,,,,Sub2
task,pracTask,1,,11,11,1,520,H,H,c,g,r,49,139882,140402,49,,,,Sub2
task,pracTask,1,,12,12,1,585,H,H,c,g,r,49,142274,142859,49,,,,Sub2
task,pracTask,1,,13,13,1,651,S,H,i,g,r,48,144926,145577,48,,,,Sub2
task,pracTask,1,,14,14,1,516,H,H,c,g,r,49,147527,148043,49,,,,Sub2
task,pracTask,1,,15,15,1,725,H,S,i,g,r,49,149903,150628,49,,,,Sub2
task,pracTask,1,,16,16,1,658,H,S,i,g,r,49,152639,153297,49,,,,Sub2
prac2,pracFeedback,1,,,,,,,,,,,,,,,154734,156482,1748,Sub2
prac3,instructions,1,,,,,,,,,,,,,,,156482,184305,27823,Sub2
task,pracTask,1,,1,1,1,871,H,H,c,l,n,49,187811,188682,49,,,,Sub2
task,pracTask,1,,2,2,1,821,S,S,c,l,r,48,190645,191466,48,,,,Sub2
task,pracTask,1,,3,3,0,682,H,S,i,l,r,49,193456,194138,48,,,,Sub2
task,pracTask,1,,4,4,1,1401,S,S,c,l,r,48,196042,197443,48,,,,Sub2
task,pracTask,1,,5,5,1,610,H,H,c,l,r,49,199296,199906,49,,,,Sub2
task,pracTask,1,,6,6,1,1065,H,H,c,g,s,49,201984,203049,49,,,,Sub2
task,pracTask,1,,7,7,0,601,S,H,i,l,s,48,205065,205666,49,,,,Sub2
task,pracTask,1,,8,8,0,1332,H,S,i,g,s,48,207638,208970,49,,,,Sub2
task,pracTask,1,,9,9,1,650,H,H,c,l,s,49,210916,211566,49,,,,Sub2
task,pracTask,1,,10,10,0,1314,H,S,i,g,s,48,213473,214787,49,,,,Sub2
task,pracTask,1,,11,11,1,891,H,H,c,g,r,49,216727,217618,49,,,,Sub2
task,pracTask,1,,12,12,0,563,S,H,i,g,r,49,219583,220146,48,,,,Sub2
task,pracTask,1,,13,13,0,702,H,S,i,g,r,48,222157,222859,49,,,,Sub2
task,pracTask,1,,14,14,0,443,H,S,i,l,s,49,224920,225363,48,,,,Sub2
task,pracTask,1,,15,15,0,801,H,S,i,g,s,48,227424,228225,49,,,,Sub2
task,pracTask,1,,16,16,0,622,H,H,c,g,r,48,230139,230761,49,,,,Sub2
prac3,pracFeedback,1,,,,,,,,,,,,,,,232250,235875,3625,Sub2
prac3,instructions,2,,,,,,,,,,,,,,,235876,258610,22734,Sub2
task,pracTask,2,,1,1,1,754,S,S,c,l,n,48,262122,262876,48,,,,Sub2
task,pracTask,2,,2,2,1,996,H,S,i,l,r,48,264798,265794,48,,,,Sub2
task,pracTask,2,,3,3,1,1350,H,H,c,g,s,49,267772,269122,49,,,,Sub2
task,pracTask,2,,4,4,1,723,H,S,i,l,s,48,271143,271866,48,,,,Sub2
task,pracTask,2,,5,5,1,697,S,S,c,l,r,48,273704,274401,48,,,,Sub2
task,pracTask,2,,6,6,1,731,H,S,i,g,s,49,276343,277074,49,,,,Sub2
task,pracTask,2,,7,7,0,1316,S,H,i,g,r,49,279165,280481,48,,,,Sub2
task,pracTask,2,,8,8,1,908,H,H,c,g,r,49,282478,283386,49,,,,Sub2
task,pracTask,2,,9,9,0,,S,H,i,l,s,,285227,,49,,,,Sub2
task,pracTask,2,,10,10,1,617,S,H,i,l,r,49,288481,289098,49,,,,Sub2
task,pracTask,2,,11,11,1,644,H,H,c,l,r,49,290997,291641,49,,,,Sub2
task,pracTask,2,,12,12,1,803,S,S,c,g,s,48,293606,294409,48,,,,Sub2
task,pracTask,2,,13,13,1,808,H,H,c,g,r,49,296465,297273,49,,,,Sub2
task,pracTask,2,,14,14,1,661,H,S,i,g,r,49,299141,299802,49,,,,Sub2
task,pracTask,2,,15,15,1,960,S,S,c,l,s,48,301641,302601,48,,,,Sub2
task,pracTask,2,,16,16,0,1166,S,H,i,g,s,49,304492,305658,48,,,,Sub2
prac3,pracFeedback,2,,,,,,,,,,,,,,,307179,310273,3094,Sub2
main1,instructions,1,,,,,,,,,,,,,,,310274,322832,12558,Sub2
main2,instructions,1,,,,,,,,,,,,,,,322833,331025,8192,Sub2
task,mainTask,1,B,1,1,1,914,S,S,c,g,n,48,334544,335458,48,,,,Sub2
task,mainTask,1,B,2,2,0,903,S,H,i,l,s,48,337395,338298,49,,,,Sub2
task,mainTask,1,B,3,3,1,1180,S,H,i,l,r,49,340318,341498,49,,,,Sub2
task,mainTask,1,B,4,4,1,1044,H,S,i,g,s,49,343560,344604,49,,,,Sub2
task,mainTask,1,B,5,5,1,644,H,S,i,l,s,48,346654,347298,48,,,,Sub2
task,mainTask,1,B,6,6,1,675,H,H,c,l,r,49,349247,349922,49,,,,Sub2
task,mainTask,1,B,7,7,1,742,H,S,i,g,s,49,351919,352661,49,,,,Sub2
task,mainTask,1,B,8,8,1,651,H,H,c,l,s,49,354671,355322,49,,,,Sub2
task,mainTask,1,B,9,9,0,1203,S,H,i,g,s,49,357183,358386,48,,,,Sub2
task,mainTask,1,B,10,10,1,974,H,S,i,g,r,49,360228,361202,49,,,,Sub2
task,mainTask,1,B,11,11,1,1001,H,S,i,l,s,48,363280,364281,48,,,,Sub2
task,mainTask,1,B,12,12,1,671,H,S,i,g,s,49,366147,366818,49,,,,Sub2
task,mainTask,1,B,13,13,1,740,S,H,i,l,s,49,368814,369554,49,,,,Sub2
task,mainTask,1,B,14,14,1,665,H,H,c,g,s,49,371466,372131,49,,,,Sub2
task,mainTask,1,B,15,15,0,745,S,H,i,l,s,48,373992,374737,49,,,,Sub2
task,mainTask,1,B,16,16,1,877,S,S,c,g,s,48,376677,377554,48,,,,Sub2
task,mainTask,1,B,17,17,1,970,S,H,i,l,s,49,379656,380626,49,,,,Sub2
task,mainTask,1,B,18,18,1,1139,S,H,i,l,r,49,382639,383778,49,,,,Sub2
task,mainTask,1,B,19,19,1,656,H,S,i,g,s,49,385689,386345,49,,,,Sub2
task,mainTask,1,B,20,20,0,995,S,S,c,l,s,49,388254,389249,48,,,,Sub2
task,mainTask,1,B,21,21,0,874,H,S,i,l,r,49,391328,392202,48,,,,Sub2
task,mainTask,1,B,22,22,1,972,S,H,i,g,s,48,394264,395236,48,,,,Sub2
task,mainTask,1,B,23,23,1,1202,S,H,i,g,r,48,397096,398298,48,,,,Sub2
task,mainTask,1,B,24,24,0,874,S,S,c,l,s,49,400360,401234,48,,,,Sub2
task,mainTask,1,B,25,25,1,1050,S,S,c,g,s,48,403296,404346,48,,,,Sub2
task,mainTask,1,B,26,26,1,825,S,H,i,l,s,49,406368,407193,49,,,,Sub2
task,mainTask,1,B,27,27,1,787,S,H,i,l,r,49,409110,409897,49,,,,Sub2
task,mainTask,1,B,28,28,1,758,H,H,c,g,s,49,411836,412594,49,,,,Sub2
task,mainTask,1,B,29,29,1,626,H,S,i,l,s,48,414665,415291,48,,,,Sub2
task,mainTask,1,B,30,30,1,990,H,S,i,g,s,49,417237,418227,49,,,,Sub2
task,mainTask,1,B,31,31,1,769,S,S,c,l,s,48,420088,420857,48,,,,Sub2
task,mainTask,1,B,32,32,1,1057,S,H,i,g,s,48,422880,423937,48,,,,Sub2
task,mainTask,1,B,33,33,1,991,S,H,i,g,r,48,425891,426882,48,,,,Sub2
task,mainTask,1,B,34,34,1,869,H,S,i,g,r,49,428844,429713,49,,,,Sub2
task,mainTask,1,B,35,35,1,1280,H,S,i,l,s,48,431625,432905,48,,,,Sub2
task,mainTask,1,B,36,36,1,865,S,S,c,g,s,48,434744,435609,48,,,,Sub2
task,mainTask,1,B,37,37,1,957,S,H,i,g,r,48,437548,438505,48,,,,Sub2
task,mainTask,1,B,38,38,0,782,S,H,i,l,s,48,440468,441250,49,,,,Sub2
task,mainTask,1,B,39,39,1,705,S,S,c,l,r,48,443208,443913,48,,,,Sub2
task,mainTask,1,B,40,40,1,719,S,H,i,g,s,48,445738,446457,48,,,,Sub2
task,mainTask,1,B,41,41,1,956,S,H,i,g,r,48,448381,449337,48,,,,Sub2
task,mainTask,1,B,42,42,1,1176,H,S,i,l,s,48,451258,452434,48,,,,Sub2
task,mainTask,1,B,43,43,1,903,H,S,i,g,s,49,454274,455177,49,,,,Sub2
task,mainTask,1,B,44,44,0,1046,H,S,i,g,r,48,457092,458138,49,,,,Sub2
task,mainTask,1,B,45,45,1,1041,H,H,c,l,s,49,460001,461042,49,,,,Sub2
task,mainTask,1,B,46,46,1,869,S,H,i,g,s,48,463108,463977,48,,,,Sub2
task,mainTask,1,B,47,47,1,980,S,S,c,g,r,48,465966,466946,48,,,,Sub2
task,mainTask,1,B,48,48,1,650,S,H,i,l,s,49,468983,469633,49,,,,Sub2
task,mainTask,1,B,49,49,1,945,H,S,i,l,r,48,471521,472466,48,,,,Sub2
task,mainTask,1,B,50,50,1,704,H,S,i,g,s,49,474513,475217,49,,,,Sub2
task,mainTask,1,B,51,51,1,1183,H,S,i,g,r,49,477130,478313,49,,,,Sub2
task,mainTask,1,B,52,52,1,828,S,H,i,l,s,49,480261,481089,49,,,,Sub2
task,mainTask,1,B,53,53,1,738,H,H,c,g,s,49,483119,483857,49,,,,Sub2
task,mainTask,1,B,54,54,1,917,H,S,i,l,s,48,485820,486737,48,,,,Sub2
task,mainTask,1,B,55,55,1,873,S,H,i,g,s,48,488609,489482,48,,,,Sub2
task,mainTask,1,B,56,56,1,1020,S,H,i,l,s,49,491421,492441,49,,,,Sub2
task,mainTask,1,B,57,57,1,1107,H,S,i,g,s,49,494383,495490,49,,,,Sub2
task,mainTask,1,B,58,58,1,936,H,S,i,l,s,48,497401,498337,48,,,,Sub2
task,mainTask,1,B,59,59,0,1101,H,S,i,g,s,48,500317,501418,49,,,,Sub2
task,mainTask,1,B,60,60,1,944,H,H,c,g,r,49,503330,504274,49,,,,Sub2
task,mainTask,1,B,61,61,1,965,H,S,i,g,r,49,506141,507106,49,,,,Sub2
task,mainTask,1,B,62,62,1,876,H,H,c,l,s,49,508997,509873,49,,,,Sub2
task,mainTask,1,B,63,63,1,836,S,H,i,g,s,48,511886,512722,48,,,,Sub2
task,mainTask,1,B,64,64,1,1109,S,H,i,l,s,49,514668,515777,49,,,,Sub2
task,mainTask,1,B,65,65,1,1247,S,H,i,l,r,49,517707,518954,49,,,,Sub2
task,mainTask,1,B,66,66,1,739,S,S,c,g,s,48,521015,521754,48,,,,Sub2
task,mainTask,1,B,67,67,1,1040,H,H,c,l,s,49,523802,524842,49,,,,Sub2
task,mainTask,1,B,68,68,1,656,S,H,i,g,s,48,526881,527537,48,,,,Sub2
task,mainTask,1,B,69,69,0,1066,H,S,i,l,s,49,529513,530579,48,,,,Sub2
task,mainTask,1,B,70,70,1,857,S,H,i,g,s,48,532680,533537,48,,,,Sub2
task,mainTask,1,B,71,71,1,1421,S,H,i,l,s,49,535525,536946,49,,,,Sub2
task,mainTask,1,B,72,72,0,837,H,H,c,g,s,48,538932,539769,49,,,,Sub2
task,mainTask,1,B,73,73,1,504,S,H,i,g,r,48,541833,542337,48,,,,Sub2
task,mainTask,1,B,74,74,1,606,S,S,c,l,s,48,544364,544970,48,,,,Sub2
task,mainTask,1,B,75,75,1,740,H,S,i,g,s,49,546879,547619,49,,,,Sub2
task,mainTask,1,B,76,76,1,988,S,S,c,l,s,48,549510,550498,48,,,,Sub2
task,mainTask,1,B,77,77,1,668,S,H,i,g,s,48,552486,553154,48,,,,Sub2
task,mainTask,1,B,78,78,1,1215,H,S,i,l,s,48,555002,556217,48,,,,Sub2
task,mainTask,1,B,79,79,1,744,S,S,c,g,s,48,558089,558833,48,,,,Sub2
task,mainTask,1,B,80,80,1,988,H,S,i,l,s,48,560757,561745,48,,,,Sub2
task,mainTask,1,B,81,81,1,913,H,S,i,l,r,48,563761,564674,48,,,,Sub2
task,mainTask,1,B,82,82,1,669,H,H,c,g,s,49,566724,567393,49,,,,Sub2
task,mainTask,1,B,83,83,1,919,S,H,i,l,s,49,569258,570177,49,,,,Sub2
task,mainTask,1,B,84,84,1,929,S,H,i,g,s,48,572192,573121,48,,,,Sub2
task,mainTask,1,B,85,85,1,889,H,S,i,l,s,48,575136,576025,48,,,,Sub2
task,mainTask,1,B,86,86,0,955,H,S,i,g,s,48,578095,579050,49,,,,Sub2
task,mainTask,1,B,87,87,1,777,H,S,i,l,s,48,581048,581825,48,,,,Sub2
task,mainTask,1,B,88,88,0,1030,H,S,i,l,r,49,583716,584746,48,,,,Sub2
task,mainTask,1,B,89,89,1,833,S,H,i,g,s,48,586785,587618,48,,,,Sub2
task,mainTask,1,B,90,90,1,918,S,H,i,l,s,49,589516,590434,49,,,,Sub2
task,mainTask,1,B,91,91,0,,H,S,i,g,s,,592357,,49,,,,Sub2
task,mainTask,1,B,92,92,1,929,S,H,i,g,r,48,595738,596667,48,,,,Sub2
task,mainTask,1,B,93,93,1,905,S,H,i,l,s,49,598592,599497,49,,,,Sub2
task,mainTask,1,B,94,94,1,1013,H,S,i,g,s,49,601437,602450,49,,,,Sub2
task,mainTask,1,B,95,95,1,987,H,S,i,l,s,48,604438,605425,48,,,,Sub2
task,mainTask,1,B,96,96,1,913,S,H,i,g,s,48,607448,608361,48,,,,Sub2
task,mainTask,1,B,97,97,1,947,H,S,i,l,s,48,610374,611321,48,,,,Sub2
task,mainTask,1,B,98,98,1,1324,H,S,i,g,s,49,613237,614561,49,,,,Sub2
task,mainTask,1,B,99,99,1,747,S,H,i,l,s,49,616526,617273,49,,,,Sub2
task,mainTask,1,B,100,100,1,755,S,H,i,g,s,48,619190,619945,48,,,,Sub2
task,mainTask,1,B,101,101,0,1107,H,S,i,l,s,49,621870,622977,48,,,,Sub2
task,mainTask,1,B,102,102,1,915,H,S,i,g,s,49,624886,625801,49,,,,Sub2
task,mainTask,1,B,103,103,1,1177,H,H,c,l,s,49,627792,628969,49,,,,Sub2
task,mainTask,1,B,104,104,1,744,S,H,i,g,s,48,630834,631578,48,,,,Sub2
task,mainTask,1,B,105,105,1,1051,S,H,i,l,s,49,633630,634681,49,,,,Sub2
task,mainTask,1,B,106,106,1,839,S,H,i,g,s,48,636546,637385,48,,,,Sub2
task,mainTask,1,B,107,107,1,1290,H,S,i,g,r,49,639335,640625,49,,,,Sub2
task,mainTask,1,B,108,108,1,1227,H,S,i,g,r,49,642638,643865,49,,,,Sub2
task,mainTask,1,B,109,109,1,1077,H,H,c,l,s,49,645829,646906,49,,,,Sub2
task,mainTask,1,B,110,110,0,1020,H,H,c,g,s,48,648869,649889,49,,,,Sub2
task,mainTask,1,B,111,111,1,729,S,S,c,g,r,48,651737,652466,48,,,,Sub2
task,mainTask,1,B,112,112,1,1065,H,S,i,l,s,48,654512,655577,48,,,,Sub2
task,mainTask,1,B,113,113,1,1073,S,H,i,l,r,49,657426,658499,49,,,,Sub2
task,mainTask,1,B,114,114,0,1026,H,S,i,g,s,48,660546,661572,49,,,,Sub2
task,mainTask,1,B,115,115,1,1052,S,H,i,l,s,49,663572,664624,49,,,,Sub2
task,mainTask,1,B,116,116,1,944,S,H,i,l,r,49,666497,667441,49,,,,Sub2
task,mainTask,1,B,117,117,1,1135,S,S,c,l,r,48,669506,670641,48,,,,Sub2
task,mainTask,1,B,118,118,1,1091,H,S,i,l,r,48,672615,673706,48,,,,Sub2
task,mainTask,1,B,119,119,1,1129,S,S,c,g,s,48,675729,676858,48,,,,Sub2
task,mainTask,1,B,120,120,1,1072,S,S,c,l,s,48,678857,679929,48,,,,Sub2
task,mainTask,1,B,121,121,1,1101,H,S,i,l,r,48,681829,682930,48,,,,Sub2
task,mainTask,1,B,122,122,1,1099,S,H,i,g,s,48,684919,686018,48,,,,Sub2
task,mainTask,1,B,123,123,0,,H,S,i,l,s,,688042,,48,,,,Sub2
task,mainTask,1,B,124,124,1,861,S,H,i,l,r,49,691348,692209,49,,,,Sub2
task,mainTask,1,B,125,125,1,1068,H,S,i,g,s,49,694134,695202,49,,,,Sub2
task,mainTask,1,B,126,126,1,945,S,H,i,l,s,49,697200,698145,49,,,,Sub2
task,mainTask,1,B,127,127,1,682,S,H,i,g,s,48,699968,700650,48,,,,Sub2
task,mainTask,1,B,128,128,1,1065,H,H,c,l,s,49,702624,703689,49,,,,Sub2
feedback,bigBlock,2,C,,,,,,,,,,,,,,705212,729003,23791,Sub2
task,mainTask,2,C,129,1,1,1161,S,S,c,l,n,48,732520,733681,48,,,,Sub2
task,mainTask,2,C,130,2,1,938,S,S,c,l,r,48,735559,736497,48,,,,Sub2
task,mainTask,2,C,131,3,1,646,S,S,c,l,r,48,738372,739018,48,,,,Sub2
task,mainTask,2,C,132,4,1,901,H,H,c,l,r,49,740941,741842,49,,,,Sub2
task,mainTask,2,C,133,5,1,795,S,S,c,l,r,48,743903,744698,48,,,,Sub2
task,mainTask,2,C,134,6,1,849,S,S,c,l,r,48,746736,747585,48,,,,Sub2
task,mainTask,2,C,135,7,1,716,H,H,c,l,r,49,749430,750146,49,,,,Sub2
task,mainTask,2,C,136,8,1,1012,S,H,i,l,r,49,752159,753171,49,,,,Sub2
task,mainTask,2,C,137,9,1,616,H,H,c,l,r,49,755193,755809,49,,,,Sub2
task,mainTask,2,C,138,10,1,676,H,H,c,l,r,49,757717,758393,49,,,,Sub2
task,mainTask,2,C,139,11,1,595,S,S,c,g,s,48,760408,761003,48,,,,Sub2
task,mainTask,2,C,140,12,1,935,S,H,i,g,r,48,762842,763777,48,,,,Sub2
task,mainTask,2,C,141,13,1,644,S,S,c,g,r,48,765726,766370,48,,,,Sub2
task,mainTask,2,C,142,14,1,851,H,H,c,g,r,49,768320,769171,49,,,,Sub2
task,mainTask,2,C,143,15,1,796,H,H,c,g,r,49,771198,771994,49,,,,Sub2
task,mainTask,2,C,144,16,1,648,S,S,c,g,r,48,774009,774657,48,,,,Sub2
task,mainTask,2,C,145,17,0,1019,H,H,c,g,r,48,776558,777577,49,,,,Sub2
task,mainTask,2,C,146,18,1,700,S,S,c,l,s,48,779542,780242,48,,,,Sub2
task,mainTask,2,C,147,19,1,1149,S,H,i,l,r,49,782117,783266,49,,,,Sub2
task,mainTask,2,C,148,20,1,595,S,S,c,l,r,48,785353,785948,48,,,,Sub2
task,mainTask,2,C,149,21,1,937,S,S,c,l,r,48,787969,788906,48,,,,Sub2
task,mainTask,2,C,150,22,1,593,H,H,c,l,r,49,790929,791522,49,,,,Sub2
task,mainTask,2,C,151,23,1,752,H,H,c,l,r,49,793585,794337,49,,,,Sub2
task,mainTask,2,C,152,24,1,1213,H,H,c,g,s,49,796237,797450,49,,,,Sub2
task,mainTask,2,C,153,25,1,1439,H,H,c,g,r,49,799363,800802,49,,,,Sub2
task,mainTask,2,C,154,26,1,731,S,H,i,g,r,48,802718,803449,48,,,,Sub2
task,mainTask,2,C,155,27,1,798,S,S,c,g,r,48,805323,806121,48,,,,Sub2
task,mainTask,2,C,156,28,1,641,S,S,c,g,r,48,808098,808739,48,,,,Sub2
task,mainTask,2,C,157,29,1,532,S,S,c,g,r,48,810661,811193,48,,,,Sub2
task,mainTask,2,C,158,30,1,1004,H,H,c,g,r,49,813045,814049,49,,,,Sub2
task,mainTask,2,C,159,31,1,674,S,S,c,g,r,48,816039,816713,48,,,,Sub2
task,mainTask,2,C,160,32,1,839,S,S,c,g,r,48,818738,819577,48,,,,Sub2
task,mainTask,2,C,161,33,1,632,H,S,i,g,r,49,821553,822185,49,,,,Sub2
task,mainTask,2,C,162,34,1,596,H,H,c,g,r,49,824101,824697,49,,,,Sub2
task,mainTask,2,C,163,35,1,625,S,S,c,g,r,48,826553,827178,48,,,,Sub2
task,mainTask,2,C,164,36,1,1396,S,H,i,l,s,49,829177,830573,49,,,,Sub2
task,mainTask,2,C,165,37,1,1109,S,S,c,l,r,48,832382,833491,48,,,,Sub2
task,mainTask,2,C,166,38,1,719,H,H,c,g,s,49,835396,836115,49,,,,Sub2
task,mainTask,2,C,167,39,1,1210,H,H,c,l,s,49,838103,839313,49,,,,Sub2
task,mainTask,2,C,168,40,0,825,H,H,c,g,s,48,841193,842018,49,,,,Sub2
task,mainTask,2,C,169,41,1,760,H,S,i,g,r,49,844010,844770,49,,,,Sub2
task,mainTask,2,C,170,42,1,657,S,S,c,g,r,48,846736,847393,48,,,,Sub2
task,mainTask,2,C,171,43,1,695,S,H,i,g,r,48,849290,849985,48,,,,Sub2
task,mainTask,2,C,172,44,1,1032,H,H,c,g,r,49,851809,852841,49,,,,Sub2
task,mainTask,2,C,173,45,1,757,H,H,c,g,r,49,854789,855546,49,,,,Sub2
task,mainTask,2,C,174,46,1,1048,S,S,c,g,r,48,857369,858417,48,,,,Sub2
task,mainTask,2,C,175,47,1,1123,S,S,c,g,r,48,860217,861340,48,,,,Sub2
task,mainTask,2,C,176,48,1,664,S,S,c,g,r,48,863297,863961,48,,,,Sub2
task,mainTask,2,C,177,49,1,645,H,H,c,l,s,49,865763,866408,49,,,,Sub2
task,mainTask,2,C,178,50,1,691,H,H,c,l,r,49,868272,868963,49,,,,Sub2
task,mainTask,2,C,179,51,0,809,S,S,c,l,r,49,870824,871633,48,,,,Sub2
task,mainTask,2,C,180,52,0,1048,H,S,i,l,r,49,873497,874545,48,,,,Sub2
task,mainTask,2,C,181,53,1,602,S,S,c,g,s,48,876559,877161,48,,,,Sub2
task,mainTask,2,C,182,54,1,688,S,H,i,g,r,48,879123,879811,48,,,,Sub2
task,mainTask,2,C,183,55,1,630,S,S,c,g,r,48,881732,882362,48,,,,Sub2
task,mainTask,2,C,184,56,1,1110,S,S,c,l,s,48,884284,885394,48,,,,Sub2
task,mainTask,2,C,185,57,1,751,S,H,i,g,s,48,887267,888018,48,,,,Sub2
task,mainTask,2,C,186,58,1,655,S,S,c,g,r,48,890057,890712,48,,,,Sub2
task,mainTask,2,C,187,59,1,956,S,S,c,l,s,48,892661,893617,48,,,,Sub2
task,mainTask,2,C,188,60,1,928,H,H,c,g,s,49,895682,896610,49,,,,Sub2
task,mainTask,2,C,189,61,1,1076,H,H,c,g,r,49,898526,899602,49,,,,Sub2
task,mainTask,2,C,190,62,1,759,S,H,i,g,r,48,901466,902225,48,,,,Sub2
task,mainTask,2,C,191,63,1,663,S,S,c,g,r,48,904066,904729,48,,,,Sub2
task,mainTask,2,C,192,64,1,1081,H,H,c,g,r,49,906768,907849,49,,,,Sub2
task,mainTask,2,C,193,65,1,571,S,S,c,g,r,48,909798,910369,48,,,,Sub2
task,mainTask,2,C,194,66,1,621,S,S,c,g,r,48,912244,912865,48,,,,Sub2
task,mainTask,2,C,195,67,1,1050,H,H,c,l,s,49,914839,915889,49,,,,Sub2
task,mainTask,2,C,196,68,0,866,S,H,i,l,r,48,917903,918769,49,,,,Sub2
task,mainTask,2,C,197,69,1,1261,H,S,i,l,r,48,920693,921954,48,,,,Sub2
task,mainTask,2,C,198,70,1,1096,S,S,c,l,r,48,923777,924873,48,,,,Sub2
task,mainTask,2,C,199,71,1,640,S,S,c,l,r,48,926681,927321,48,,,,Sub2
task,mainTask,2,C,200,72,1,942,H,H,c,l,r,49,929211,930153,49,,,,Sub2
task,mainTask,2,C,201,73,1,908,H,H,c,l,r,49,932068,932976,49,,,,Sub2
task,mainTask,2,C,202,74,1,636,S,H,i,g,s,48,934941,935577,48,,,,Sub2
task,mainTask,2,C,203,75,1,897,S,S,c,l,s,48,937401,938298,48,,,,Sub2
task,mainTask,2,C,204,76,1,1166,S,H,i,l,r,49,940124,941290,49,,,,Sub2
task,mainTask,2,C,205,77,1,1008,H,S,i,l,r,48,943178,944186,48,,,,Sub2
task,mainTask,2,C,206,78,1,1082,S,S,c,l,r,48,946175,947257,48,,,,Sub2
task,mainTask,2,C,207,79,1,1169,H,H,c,g,s,49,949272,950441,49,,,,Sub2
task,mainTask,2,C,208,80,1,712,H,H,c,l,s,49,952497,953209,49,,,,Sub2
task,mainTask,2,C,209,81,1,1070,S,S,c,l,r,48,955148,956218,48,,,,Sub2
task,mainTask,2,C,210,82,1,894,S,H,i,l,r,49,958066,958960,49,,,,Sub2
task,mainTask,2,C,211,83,1,1106,H,H,c,g,s,49,960951,962057,49,,,,Sub2
task,mainTask,2,C,212,84,1,1071,H,H,c,g,r,49,964098,965169,49,,,,Sub2
task,mainTask,2,C,213,85,1,1003,H,S,i,g,r,49,967133,968136,49,,,,Sub2
task,mainTask,2,C,214,86,1,650,S,S,c,g,r,48,970086,970736,48,,,,Sub2
task,mainTask,2,C,215,87,1,832,H,H,c,l,s,49,972761,973593,49,,,,Sub2
task,mainTask,2,C,216,88,1,606,S,S,c,g,s,48,975434,976040,48,,,,Sub2
task,mainTask,2,C,217,89,1,655,H,H,c,g,r,49,977867,978522,49,,,,Sub2
task,mainTask,2,C,218,90,1,1075,S,S,c,l,s,48,980423,981498,48,,,,Sub2
task,mainTask,2,C,219,91,0,1349,S,H,i,l,r,48,983508,984857,49,,,,Sub2
task,mainTask,2,C,220,92,1,654,H,H,c,l,r,49,986643,987297,49,,,,Sub2
task,mainTask,2,C,221,93,1,789,H,H,c,l,r,49,989165,989954,49,,,,Sub2
task,mainTask,2,C,222,94,1,637,S,S,c,g,s,48,991893,992530,48,,,,Sub2
task,mainTask,2,C,223,95,1,719,S,S,c,g,r,48,994426,995145,48,,,,Sub2
task,mainTask,2,C,224,96,1,1248,H,S,i,g,r,49,997074,998322,49,,,,Sub2
task,mainTask,2,C,225,97,1,1184,S,S,c,l,s,48,1000386,1001570,48,,,,Sub2
task,mainTask,2,C,226,98,1,1157,S,S,c,l,r,48,1003396,1004553,48,,,,Sub2
task,mainTask,2,C,227,99,1,1001,S,S,c,l,r,48,1006513,1007514,48,,,,Sub2
task,mainTask,2,C,228,100,1,1397,H,S,i,l,r,48,1009372,1010769,48,,,,Sub2
task,mainTask,2,C,229,101,1,972,H,H,c,l,r,49,1012782,1013754,49,,,,Sub2
task,mainTask,2,C,230,102,1,889,S,S,c,l,r,48,1015617,1016506,48,,,,Sub2
task,mainTask,2,C,231,103,1,865,S,H,i,l,r,49,1018409,1019274,49,,,,Sub2
task,mainTask,2,C,232,104,0,,H,H,c,g,s,,1021239,,49,,,,Sub2
task,mainTask,2,C,233,105,1,680,S,S,c,g,r,48,1024596,1025276,48,,,,Sub2
task,mainTask,2,C,234,106,1,706,S,S,c,g,r,48,1027320,1028026,48,,,,Sub2
task,mainTask,2,C,235,107,1,777,S,H,i,l,s,49,1029961,1030738,49,,,,Sub2
task,mainTask,2,C,236,108,1,1020,H,H,c,l,r,49,1032726,1033746,49,,,,Sub2
task,mainTask,2,C,237,109,1,664,H,H,c,l,r,49,1035849,1036513,49,,,,Sub2
task,mainTask,2,C,238,110,1,550,H,H,c,l,r,49,1038427,1038977,49,,,,Sub2
task,mainTask,2,C,239,111,1,817,H,H,c,g,s,49,1041065,1041882,49,,,,Sub2
task,mainTask,2,C,240,112,1,1119,H,S,i,g,r,49,1043747,1044866,49,,,,Sub2
task,mainTask,2,C,241,113,1,527,S,H,i,l,s,49,1046730,1047257,49,,,,Sub2
task,mainTask,2,C,242,114,1,533,H,H,c,l,r,49,1049364,1049897,49,,,,Sub2
task,mainTask,2,C,243,115,1,661,H,H,c,l,r,49,1051941,1052602,49,,,,Sub2
task,mainTask,2,C,244,116,1,915,H,S,i,l,r,48,1054671,1055586,48,,,,Sub2
task,mainTask,2,C,245,117,0,1055,H,H,c,g,s,48,1057436,1058491,49,,,,Sub2
task,mainTask,2,C,246,118,1,759,H,H,c,g,r,49,1060348,1061107,49,,,,Sub2
task,mainTask,2,C,247,119,1,596,S,S,c,g,r,48,1063238,1063834,48,,,,Sub2
task,mainTask,2,C,248,120,0,1164,H,H,c,g,r,48,1065702,1066866,49,,,,Sub2
task,mainTask,2,C,249,121,1,950,H,S,i,l,s,48,1068699,1069649,48,,,,Sub2
task,mainTask,2,C,250,122,0,,H,S,i,l,r,,1071674,,48,,,,Sub2
task,mainTask,2,C,251,123,1,1159,S,H,i,l,r,49,1074932,1076091,49,,,,Sub2
task,mainTask,2,C,252,124,1,1045,S,H,i,l,r,49,1077941,1078986,49,,,,Sub2
task,mainTask,2,C,253,125,0,884,S,S,c,l,r,49,1080986,1081870,48,,,,Sub2
task,mainTask,2,C,254,126,1,625,S,S,c,g,s,48,1083890,1084515,48,,,,Sub2
task,mainTask,2,C,255,127,0,599,H,S,i,g,r,48,1086515,1087114,49,,,,Sub2
task,mainTask,2,C,256,128,1,948,S,S,c,g,r,48,1089118,1090066,48,,,,Sub2
feedback,bigBlock,3,A,,,,,,,,,,,,,,1091605,1497577,405972,Sub2
task,mainTask,3,A,257,1,1,942,H,H,c,l,n,49,1501107,1502049,49,,,,Sub2
task,mainTask,3,A,258,2,1,584,S,S,c,g,s,48,1503962,1504546,48,,,,Sub2
task,mainTask,3,A,259,3,1,556,S,H,i,g,r,48,1506519,1507075,48,,,,Sub2
task,mainTask,3,A,260,4,1,589,S,S,c,g,r,48,1508988,1509577,48,,,,Sub2
task,mainTask,3,A,261,5,0,882,H,S,i,l,s,49,1511415,1512297,48,,,,Sub2
task,mainTask,3,A,262,6,1,662,H,H,c,l,r,49,1514219,1514881,49,,,,Sub2
task,mainTask,3,A,263,7,1,509,S,H,i,g,s,48,1516820,1517329,48,,,,Sub2
task,mainTask,3,A,264,8,0,684,H,S,i,g,r,48,1519220,1519904,49,,,,Sub2
task,mainTask,3,A,265,9,1,753,H,S,i,l,s,48,1521856,1522609,48,,,,Sub2
task,mainTask,3,A,266,10,1,835,S,H,i,l,r,49,1524454,1525289,49,,,,Sub2
task,mainTask,3,A,267,11,1,856,S,H,i,l,r,49,1527177,1528033,49,,,,Sub2
task,mainTask,3,A,268,12,1,683,S,H,i,l,r,49,1529886,1530569,49,,,,Sub2
task,mainTask,3,A,269,13,1,834,H,S,i,l,r,48,1532424,1533258,48,,,,Sub2
task,mainTask,3,A,270,14,1,769,H,S,i,l,r,48,1535312,1536081,48,,,,Sub2
task,mainTask,3,A,271,15,1,868,H,S,i,l,r,48,1537981,1538849,48,,,,Sub2
task,mainTask,3,A,272,16,1,786,S,H,i,l,r,49,1540879,1541665,49,,,,Sub2
task,mainTask,3,A,273,17,1,916,S,S,c,l,r,48,1543727,1544643,48,,,,Sub2
task,mainTask,3,A,274,18,1,858,S,H,i,l,r,49,1546647,1547505,49,,,,Sub2
task,mainTask,3,A,275,19,1,1149,S,H,i,g,s,48,1549349,1550498,48,,,,Sub2
task,mainTask,3,A,276,20,1,974,S,H,i,g,r,48,1552388,1553362,48,,,,Sub2
task,mainTask,3,A,277,21,1,990,H,S,i,g,r,49,1555378,1556368,49,,,,Sub2
task,mainTask,3,A,278,22,1,903,S,H,i,g,r,48,1558297,1559200,48,,,,Sub2
task,mainTask,3,A,279,23,1,1484,H,H,c,g,r,49,1561117,1562601,49,,,,Sub2
task,mainTask,3,A,280,24,1,1006,S,S,c,g,r,48,1564539,1565545,48,,,,Sub2
task,mainTask,3,A,281,25,1,830,S,S,c,g,r,48,1567530,1568360,48,,,,Sub2
task,mainTask,3,A,282,26,1,1211,H,S,i,l,s,48,1570376,1571587,48,,,,Sub2
task,mainTask,3,A,283,27,1,640,H,H,c,l,r,49,1573393,1574033,49,,,,Sub2
task,mainTask,3,A,284,28,1,1124,S,H,i,l,r,49,1575861,1576985,49,,,,Sub2
task,mainTask,3,A,285,29,0,,H,S,i,l,r,,1578861,,48,,,,Sub2
task,mainTask,3,A,286,30,1,1126,H,S,i,l,r,48,1582131,1583257,48,,,,Sub2
task,mainTask,3,A,287,31,1,908,S,H,i,l,r,49,1585237,1586145,49,,,,Sub2
task,mainTask,3,A,288,32,1,809,H,S,i,l,r,48,1588000,1588809,48,,,,Sub2
task,mainTask,3,A,289,33,1,924,S,H,i,g,s,48,1590797,1591721,48,,,,Sub2
task,mainTask,3,A,290,34,1,724,S,H,i,g,r,48,1593669,1594393,48,,,,Sub2
task,mainTask,3,A,291,35,1,801,S,S,c,g,r,48,1596328,1597129,48,,,,Sub2
task,mainTask,3,A,292,36,1,636,H,S,i,l,s,48,1599140,1599776,48,,,,Sub2
task,mainTask,3,A,293,37,1,642,S,H,i,l,r,49,1601623,1602265,49,,,,Sub2
task,mainTask,3,A,294,38,1,868,S,H,i,l,r,49,1604301,1605169,49,,,,Sub2
task,mainTask,3,A,295,39,1,701,S,H,i,l,r,49,1607012,1607713,49,,,,Sub2
task,mainTask,3,A,296,40,1,955,H,S,i,g,s,49,1609693,1610648,49,,,,Sub2
task,mainTask,3,A,297,41,1,581,H,S,i,g,r,49,1612499,1613080,49,,,,Sub2
task,mainTask,3,A,298,42,1,904,H,S,i,g,r,49,1615105,1616009,49,,,,Sub2
task,mainTask,3,A,299,43,1,635,H,S,i,g,r,49,1617886,1618521,49,,,,Sub2
task,mainTask,3,A,300,44,1,787,S,H,i,g,r,48,1620502,1621289,48,,,,Sub2
task,mainTask,3,A,301,45,1,1335,S,H,i,l,s,49,1623331,1624666,49,,,,Sub2
task,mainTask,3,A,302,46,1,1213,H,S,i,g,s,49,1626644,1627857,49,,,,Sub2
task,mainTask,3,A,303,47,1,856,S,H,i,l,s,49,1629737,1630593,49,,,,Sub2
task,mainTask,3,A,304,48,1,729,H,S,i,g,s,49,1632480,1633209,49,,,,Sub2
task,mainTask,3,A,305,49,1,773,H,S,i,g,r,49,1635092,1635865,49,,,,Sub2
task,mainTask,3,A,306,50,1,768,S,H,i,g,r,48,1637937,1638705,48,,,,Sub2
task,mainTask,3,A,307,51,1,1036,S,H,i,l,s,49,1640646,1641682,49,,,,Sub2
task,mainTask,3,A,308,52,0,1137,H,S,i,l,r,49,1643504,1644641,48,,,,Sub2
task,mainTask,3,A,309,53,1,985,H,S,i,l,r,48,1646689,1647674,48,,,,Sub2
task,mainTask,3,A,310,54,1,890,H,S,i,l,r,48,1649512,1650402,48,,,,Sub2
task,mainTask,3,A,311,55,1,835,S,H,i,l,r,49,1652431,1653266,49,,,,Sub2
task,mainTask,3,A,312,56,0,1034,S,H,i,g,s,49,1655144,1656178,48,,,,Sub2
task,mainTask,3,A,313,57,1,625,H,S,i,g,r,49,1658264,1658889,49,,,,Sub2
task,mainTask,3,A,314,58,1,993,H,S,i,g,r,49,1660872,1661865,49,,,,Sub2
task,mainTask,3,A,315,59,1,1096,H,H,c,g,r,49,1663795,1664891,49,,,,Sub2
task,mainTask,3,A,316,60,1,756,S,H,i,l,s,49,1666877,1667633,49,,,,Sub2
task,mainTask,3,A,317,61,0,1368,H,S,i,l,r,49,1669698,1671066,48,,,,Sub2
task,mainTask,3,A,318,62,1,1268,H,S,i,l,r,48,1673093,1674361,48,,,,Sub2
task,mainTask,3,A,319,63,1,812,H,H,c,l,r,49,1676357,1677169,49,,,,Sub2
task,mainTask,3,A,320,64,1,921,S,H,i,l,r,49,1679208,1680129,49,,,,Sub2
task,mainTask,3,A,321,65,1,865,H,S,i,l,r,48,1682040,1682905,48,,,,Sub2
task,mainTask,3,A,322,66,1,713,H,S,i,g,s,49,1684808,1685521,49,,,,Sub2
task,mainTask,3,A,323,67,0,1045,H,S,i,g,r,48,1687556,1688601,49,,,,Sub2
task,mainTask,3,A,324,68,1,846,S,H,i,l,s,49,1690651,1691497,49,,,,Sub2
task,mainTask,3,A,325,69,1,961,H,S,i,l,r,48,1693416,1694377,48,,,,Sub2
task,mainTask,3,A,326,70,1,918,H,S,i,l,r,48,1696395,1697313,48,,,,Sub2
task,mainTask,3,A,327,71,1,709,S,H,i,l,r,49,1699253,1699962,49,,,,Sub2
task,mainTask,3,A,328,72,1,791,H,S,i,l,r,48,1701890,1702681,48,,,,Sub2
task,mainTask,3,A,329,73,1,603,H,H,c,l,r,49,1704742,1705345,49,,,,Sub2
task,mainTask,3,A,330,74,1,651,H,H,c,l,r,49,1707422,1708073,49,,,,Sub2
task,mainTask,3,A,331,75,1,774,S,H,i,g,s,48,1710084,1710858,48,,,,Sub2
task,mainTask,3,A,332,76,1,719,S,S,c,g,r,48,1712722,1713441,48,,,,Sub2
task,mainTask,3,A,333,77,1,1113,S,H,i,g,r,48,1715496,1716609,48,,,,Sub2
task,mainTask,3,A,334,78,1,546,S,H,i,g,r,48,1718631,1719177,48,,,,Sub2
task,mainTask,3,A,335,79,1,515,S,H,i,g,r,48,1721143,1721658,48,,,,Sub2
task,mainTask,3,A,336,80,1,781,S,S,c,g,r,48,1723564,1724345,48,,,,Sub2
task,mainTask,3,A,337,81,1,698,H,H,c,l,s,49,1726407,1727105,49,,,,Sub2
task,mainTask,3,A,338,82,1,956,H,S,i,l,r,48,1728989,1729945,48,,,,Sub2
task,mainTask,3,A,339,83,1,1048,S,S,c,l,r,48,1731954,1733002,48,,,,Sub2
task,mainTask,3,A,340,84,1,871,S,H,i,l,r,49,1735002,1735873,49,,,,Sub2
task,mainTask,3,A,341,85,1,682,S,H,i,l,r,49,1737935,1738617,49,,,,Sub2
task,mainTask,3,A,342,86,1,636,H,H,c,l,r,49,1740613,1741249,49,,,,Sub2
task,mainTask,3,A,343,87,1,876,S,S,c,l,r,48,1743101,1743977,48,,,,Sub2
task,mainTask,3,A,344,88,1,918,S,H,i,g,s,48,1745827,1746745,48,,,,Sub2
task,mainTask,3,A,345,89,1,973,S,H,i,g,r,48,1748716,1749689,48,,,,Sub2
task,mainTask,3,A,346,90,0,,H,S,i,g,r,,1751650,,49,,,,Sub2
task,mainTask,3,A,347,91,1,692,H,H,c,l,s,49,1755077,1755769,49,,,,Sub2
task,mainTask,3,A,348,92,1,598,S,H,i,g,s,48,1757716,1758314,48,,,,Sub2
task,mainTask,3,A,349,93,1,686,S,S,c,g,r,48,1760179,1760865,48,,,,Sub2
task,mainTask,3,A,350,94,1,1068,H,S,i,g,r,49,1762713,1763781,49,,,,Sub2
task,mainTask,3,A,351,95,1,753,S,S,c,g,r,48,1765688,1766441,48,,,,Sub2
task,mainTask,3,A,352,96,1,679,H,S,i,g,r,49,1768322,1769001,49,,,,Sub2
task,mainTask,3,A,353,97,1,846,H,H,c,g,r,49,1771051,1771897,49,,,,Sub2
task,mainTask,3,A,354,98,1,661,H,S,i,g,r,49,1773828,1774489,49,,,,Sub2
task,mainTask,3,A,355,99,1,815,H,S,i,g,r,49,1776458,1777273,49,,,,Sub2
task,mainTask,3,A,356,100,1,808,H,S,i,g,r,49,1779153,1779961,49,,,,Sub2
task,mainTask,3,A,357,101,1,766,S,H,i,g,r,48,1781963,1782729,48,,,,Sub2
task,mainTask,3,A,358,102,1,1162,H,S,i,l,s,48,1784759,1785921,48,,,,Sub2
task,mainTask,3,A,359,103,1,779,S,S,c,g,s,48,1787694,1788473,48,,,,Sub2
task,mainTask,3,A,360,104,1,820,H,S,i,g,r,49,1790325,1791145,49,,,,Sub2
task,mainTask,3,A,361,105,1,833,H,H,c,l,s,49,1793072,1793905,49,,,,Sub2
task,mainTask,3,A,362,106,1,1025,H,H,c,g,s,49,1795824,1796849,49,,,,Sub2
task,mainTask,3,A,363,107,1,714,H,S,i,g,r,49,1798767,1799481,49,,,,Sub2
task,mainTask,3,A,364,108,1,756,S,H,i,g,r,48,1801477,1802233,48,,,,Sub2
task,mainTask,3,A,365,109,1,852,S,H,i,l,s,49,1804109,1804961,49,,,,Sub2
task,mainTask,3,A,366,110,1,884,H,H,c,g,s,49,1806869,1807753,49,,,,Sub2
task,mainTask,3,A,367,111,1,697,H,H,c,g,r,49,1809697,1810394,49,,,,Sub2
task,mainTask,3,A,368,112,1,645,H,S,i,g,r,49,1812316,1812961,49,,,,Sub2
task,mainTask,3,A,369,113,1,593,H,S,i,g,r,49,1815040,1815633,49,,,,Sub2
task,mainTask,3,A,370,114,1,646,H,S,i,g,r,49,1817531,1818177,49,,,,Sub2
task,mainTask,3,A,371,115,1,548,H,H,c,g,r,49,1820125,1820673,49,,,,Sub2
task,mainTask,3,A,372,116,1,841,S,H,i,l,s,49,1822544,1823385,49,,,,Sub2
task,mainTask,3,A,373,117,0,1091,H,S,i,l,r,49,1825358,1826449,48,,,,Sub2
task,mainTask,3,A,374,118,1,897,H,S,i,l,r,48,1828369,1829266,48,,,,Sub2
task,mainTask,3,A,375,119,1,804,H,S,i,l,r,48,1831221,1832025,48,,,,Sub2
task,mainTask,3,A,376,120,1,672,H,H,c,l,r,49,1834065,1834737,49,,,,Sub2
task,mainTask,3,A,377,121,1,807,H,S,i,l,r,48,1836722,1837529,48,,,,Sub2
task,mainTask,3,A,378,122,1,714,S,H,i,l,r,49,1839463,1840177,49,,,,Sub2
task,mainTask,3,A,379,123,1,705,S,H,i,l,r,49,1842137,1842842,49,,,,Sub2
task,mainTask,3,A,380,124,1,632,H,H,c,l,r,49,1844874,1845506,49,,,,Sub2
task,mainTask,3,A,381,125,1,1073,S,H,i,g,s,48,1847592,1848665,48,,,,Sub2
task,mainTask,3,A,382,126,0,1024,H,S,i,g,r,48,1850705,1851729,49,,,,Sub2
task,mainTask,3,A,383,127,1,1287,S,H,i,g,r,48,1853762,1855049,48,,,,Sub2
task,mainTask,3,A,384,128,1,918,H,S,i,g,r,49,1857131,1858049,49,,,,Sub2
feedback,bigBlock,4,D,,,,,,,,,,,,,,1859448,2007032,147584,Sub2
task,mainTask,4,D,385,1,1,702,S,S,c,g,n,48,2010563,2011265,48,,,,Sub2
task,mainTask,4,D,386,2,1,606,S,H,i,g,r,48,2013211,2013817,48,,,,Sub2
task,mainTask,4,D,387,3,1,834,S,S,c,l,s,48,2015887,2016721,48,,,,Sub2
task,mainTask,4,D,388,4,1,985,H,H,c,g,s,49,2018616,2019601,49,,,,Sub2
task,mainTask,4,D,389,5,1,999,S,S,c,l,s,48,2021522,2022521,48,,,,Sub2
task,mainTask,4,D,390,6,1,1409,H,S,i,g,s,49,2024352,2025761,49,,,,Sub2
task,mainTask,4,D,391,7,1,841,S,S,c,l,s,48,2027680,2028521,48,,,,Sub2
task,mainTask,4,D,392,8,1,673,H,H,c,l,r,49,2030376,2031049,49,,,,Sub2
task,mainTask,4,D,393,9,1,660,S,S,c,g,s,48,2032957,2033617,48,,,,Sub2
task,mainTask,4,D,394,10,1,1139,H,H,c,g,r,49,2035462,2036601,49,,,,Sub2
task,mainTask,4,D,395,11,1,562,H,H,c,g,r,49,2038511,2039073,49,,,,Sub2
task,mainTask,4,D,396,12,1,563,H,H,c,l,s,49,2041078,2041641,49,,,,Sub2
task,mainTask,4,D,397,13,1,768,S,H,i,g,s,48,2043641,2044409,48,,,,Sub2
task,mainTask,4,D,398,14,1,814,H,H,c,l,s,49,2046243,2047057,49,,,,Sub2
task,mainTask,4,D,399,15,1,611,H,S,i,g,s,49,2048894,2049505,49,,,,Sub2
task,mainTask,4,D,400,16,1,803,S,S,c,l,s,48,2051534,2052337,48,,,,Sub2
task,mainTask,4,D,401,17,1,965,H,H,c,g,s,49,2054180,2055145,49,,,,Sub2
task,mainTask,4,D,402,18,1,734,S,S,c,l,s,48,2057003,2057737,48,,,,Sub2
task,mainTask,4,D,403,19,1,681,S,H,i,g,s,48,2059569,2060250,48,,,,Sub2
task,mainTask,4,D,404,20,1,848,S,S,c,l,s,48,2062280,2063128,48,,,,Sub2
task,mainTask,4,D,405,21,1,679,S,S,c,g,s,48,2065169,2065848,48,,,,Sub2
task,mainTask,4,D,406,22,0,875,S,H,i,l,s,48,2067773,2068648,49,,,,Sub2
task,mainTask,4,D,407,23,1,817,S,S,c,g,s,48,2070664,2071481,48,,,,Sub2
task,mainTask,4,D,408,24,1,864,S,H,i,l,s,49,2073456,2074320,49,,,,Sub2
task,mainTask,4,D,409,25,1,763,H,H,c,l,r,49,2076205,2076968,49,,,,Sub2
task,mainTask,4,D,410,26,0,962,H,H,c,g,s,48,2079030,2079992,49,,,,Sub2
task,mainTask,4,D,411,27,1,729,H,H,c,l,s,49,2081881,2082610,49,,,,Sub2
task,mainTask,4,D,412,28,1,1062,S,H,i,l,r,49,2084554,2085616,49,,,,Sub2
task,mainTask,4,D,413,29,1,775,S,S,c,g,s,48,2087641,2088416,48,,,,Sub2
task,mainTask,4,D,414,30,1,964,S,S,c,l,s,48,2090388,2091352,48,,,,Sub2
task,mainTask,4,D,415,31,1,640,S,S,c,g,s,48,2093400,2094040,48,,,,Sub2
task,mainTask,4,D,416,32,1,680,S,S,c,g,r,48,2096056,2096736,48,,,,Sub2
task,mainTask,4,D,417,33,1,726,S,H,i,l,s,49,2098692,2099418,49,,,,Sub2
task,mainTask,4,D,418,34,1,1002,H,H,c,g,s,49,2101318,2102320,49,,,,Sub2
task,mainTask,4,D,419,35,1,951,S,S,c,l,s,48,2104425,2105376,48,,,,Sub2
task,mainTask,4,D,420,36,1,718,H,H,c,g,s,49,2107226,2107944,49,,,,Sub2
task,mainTask,4,D,421,37,1,657,S,S,c,g,r,48,2110023,2110680,48,,,,Sub2
task,mainTask,4,D,422,38,1,825,S,S,c,l,s,48,2112543,2113368,48,,,,Sub2
task,mainTask,4,D,423,39,1,1089,H,S,i,g,s,49,2115375,2116464,49,,,,Sub2
task,mainTask,4,D,424,40,1,752,S,S,c,l,s,48,2118384,2119136,48,,,,Sub2
task,mainTask,4,D,425,41,1,740,H,S,i,g,s,49,2121196,2121936,49,,,,Sub2
task,mainTask,4,D,426,42,1,708,S,S,c,g,r,48,2123956,2124664,48,,,,Sub2
task,mainTask,4,D,427,43,1,702,H,H,c,l,s,49,2126675,2127377,49,,,,Sub2
task,mainTask,4,D,428,44,1,795,H,H,c,g,s,49,2129349,2130144,49,,,,Sub2
task,mainTask,4,D,429,45,1,777,S,H,i,l,s,49,2132231,2133008,49,,,,Sub2
task,mainTask,4,D,430,46,0,928,H,S,i,l,r,49,2135088,2136016,48,,,,Sub2
task,mainTask,4,D,431,47,1,662,H,H,c,l,r,49,2138117,2138779,49,,,,Sub2
task,mainTask,4,D,432,48,1,1114,H,H,c,g,s,49,2140870,2141984,49,,,,Sub2
task,mainTask,4,D,433,49,1,640,S,S,c,l,s,48,2143857,2144497,48,,,,Sub2
task,mainTask,4,D,434,50,1,715,S,S,c,l,r,48,2146349,2147064,48,,,,Sub2
task,mainTask,4,D,435,51,1,761,S,S,c,g,s,48,2149121,2149882,48,,,,Sub2
task,mainTask,4,D,436,52,1,752,H,S,i,l,s,48,2151816,2152568,48,,,,Sub2
task,mainTask,4,D,437,53,1,737,S,S,c,g,s,48,2154399,2155136,48,,,,Sub2
task,mainTask,4,D,438,54,1,566,H,H,c,l,s,49,2157203,2157769,49,,,,Sub2
task,mainTask,4,D,439,55,1,646,H,H,c,l,r,49,2159851,2160497,49,,,,Sub2
task,mainTask,4,D,440,56,1,967,H,H,c,g,s,49,2162401,2163368,49,,,,Sub2
task,mainTask,4,D,441,57,1,736,H,H,c,l,s,49,2165264,2166000,49,,,,Sub2
task,mainTask,4,D,442,58,1,897,H,S,i,g,s,49,2167992,2168889,49,,,,Sub2
task,mainTask,4,D,443,59,1,1149,H,H,c,g,r,49,2170748,2171897,49,,,,Sub2
task,mainTask,4,D,444,60,1,768,S,S,c,l,s,48,2173856,2174624,48,,,,Sub2
task,mainTask,4,D,445,61,1,926,H,H,c,g,s,49,2176683,2177609,49,,,,Sub2
task,mainTask,4,D,446,62,1,1120,S,S,c,g,r,48,2179616,2180736,48,,,,Sub2
task,mainTask,4,D,447,63,1,684,H,H,c,l,s,49,2182732,2183416,49,,,,Sub2
task,mainTask,4,D,448,64,1,812,H,H,c,g,s,49,2185237,2186049,49,,,,Sub2
task,mainTask,4,D,449,65,1,708,H,H,c,l,s,49,2188037,2188745,49,,,,Sub2
task,mainTask,4,D,450,66,1,889,H,H,c,g,s,49,2190680,2191569,49,,,,Sub2
task,mainTask,4,D,451,67,1,740,S,S,c,l,s,48,2193589,2194329,48,,,,Sub2
task,mainTask,4,D,452,68,1,670,H,H,c,g,s,49,2196203,2196873,49,,,,Sub2
task,mainTask,4,D,453,69,1,722,H,S,i,l,s,48,2198735,2199457,48,,,,Sub2
task,mainTask,4,D,454,70,1,666,S,H,i,g,s,48,2201407,2202073,48,,,,Sub2
task,mainTask,4,D,455,71,1,569,S,H,i,l,s,49,2203978,2204547,49,,,,Sub2
task,mainTask,4,D,456,72,1,629,S,S,c,l,r,48,2206588,2207217,48,,,,Sub2
task,mainTask,4,D,457,73,0,714,H,S,i,l,r,49,2209239,2209953,48,,,,Sub2
task,mainTask,4,D,458,74,1,779,H,H,c,g,s,49,2211854,2212633,49,,,,Sub2
task,mainTask,4,D,459,75,1,1103,H,S,i,g,r,49,2214658,2215761,49,,,,Sub2
task,mainTask,4,D,460,76,1,811,S,S,c,l,s,48,2217798,2218609,48,,,,Sub2
task,mainTask,4,D,461,77,1,873,H,S,i,l,r,48,2220512,2221385,48,,,,Sub2
task,mainTask,4,D,462,78,1,705,S,S,c,g,s,48,2223207,2223912,48,,,,Sub2
task,mainTask,4,D,463,79,1,1186,H,H,c,l,s,49,2225951,2227137,49,,,,Sub2
task,mainTask,4,D,464,80,1,1021,H,H,c,g,s,49,2228996,2230017,49,,,,Sub2
task,mainTask,4,D,465,81,1,731,H,H,c,l,s,49,2231913,2232644,49,,,,Sub2
task,mainTask,4,D,466,82,1,884,H,H,c,g,s,49,2234469,2235353,49,,,,Sub2
task,mainTask,4,D,467,83,1,1105,S,S,c,l,s,48,2237322,2238427,48,,,,Sub2
task,mainTask,4,D,468,84,1,542,H,H,c,g,s,49,2240395,2240937,49,,,,Sub2
task,mainTask,4,D,469,85,1,945,H,S,i,l,s,48,2243007,2243952,48,,,,Sub2
task,mainTask,4,D,470,86,1,930,H,H,c,g,s,49,2245735,2246665,49,,,,Sub2
task,mainTask,4,D,471,87,1,1019,S,S,c,l,s,48,2248718,2249737,48,,,,Sub2
task,mainTask,4,D,472,88,1,1196,S,S,c,g,s,48,2251588,2252784,48,,,,Sub2
task,mainTask,4,D,473,89,1,1096,S,S,c,l,s,48,2254712,2255808,48,,,,Sub2
task,mainTask,4,D,474,90,1,642,H,H,c,g,s,49,2257798,2258440,49,,,,Sub2
task,mainTask,4,D,475,91,1,617,H,H,c,l,s,49,2260416,2261033,49,,,,Sub2
task,mainTask,4,D,476,92,1,1359,H,H,c,g,s,49,2262985,2264344,49,,,,Sub2
task,mainTask,4,D,477,93,1,971,S,S,c,l,s,48,2266237,2267208,48,,,,Sub2
task,mainTask,4,D,478,94,1,923,S,S,c,g,s,48,2268989,2269912,48,,,,Sub2
task,mainTask,4,D,479,95,1,891,S,S,c,l,s,48,2271814,2272705,48,,,,Sub2
task,mainTask,4,D,480,96,1,1232,S,H,i,g,s,48,2274488,2275720,48,,,,Sub2
task,mainTask,4,D,481,97,1,738,H,H,c,l,s,49,2277702,2278440,49,,,,Sub2
task,mainTask,4,D,482,98,1,1192,H,H,c,g,s,49,2280328,2281520,49,,,,Sub2
task,mainTask,4,D,483,99,1,1112,H,S,i,l,s,48,2283480,2284592,48,,,,Sub2
task,mainTask,4,D,484,100,1,917,S,S,c,g,s,48,2286427,2287344,48,,,,Sub2
task,mainTask,4,D,485,101,1,877,S,S,c,l,s,48,2289187,2290064,48,,,,Sub2
task,mainTask,4,D,486,102,1,1098,S,S,c,l,r,48,2292055,2293153,48,,,,Sub2
task,mainTask,4,D,487,103,1,1277,S,H,i,l,r,49,2295085,2296362,49,,,,Sub2
task,mainTask,4,D,488,104,1,612,H,H,c,l,r,49,2298340,2298952,49,,,,Sub2
task,mainTask,4,D,489,105,1,997,S,S,c,g,s,48,2300803,2301800,48,,,,Sub2
task,mainTask,4,D,490,106,1,804,S,H,i,l,s,49,2303684,2304488,49,,,,Sub2
task,mainTask,4,D,491,107,1,921,H,H,c,g,s,49,2306415,2307336,49,,,,Sub2
task,mainTask,4,D,492,108,1,896,H,H,c,g,r,49,2309202,2310098,49,,,,Sub2
task,mainTask,4,D,493,109,1,992,S,S,c,l,s,48,2311992,2312984,48,,,,Sub2
task,mainTask,4,D,494,110,1,815,S,S,c,g,s,48,2314913,2315728,48,,,,Sub2
task,mainTask,4,D,495,111,1,757,H,H,c,g,r,49,2317660,2318417,49,,,,Sub2
task,mainTask,4,D,496,112,1,706,S,S,c,g,r,48,2320446,2321152,48,,,,Sub2
task,mainTask,4,D,497,113,1,749,S,H,i,g,r,48,2323163,2323912,48,,,,Sub2
task,mainTask,4,D,498,114,1,734,H,H,c,g,r,49,2325970,2326704,49,,,,Sub2
task,mainTask,4,D,499,115,1,643,H,S,i,l,s,48,2328638,2329281,48,,,,Sub2
task,mainTask,4,D,500,116,1,847,S,S,c,l,r,48,2331313,2332160,48,,,,Sub2
task,mainTask,4,D,501,117,1,841,H,H,c,l,r,49,2334008,2334849,49,,,,Sub2
task,mainTask,4,D,502,118,1,705,S,S,c,g,s,48,2336727,2337432,48,,,,Sub2
task,mainTask,4,D,503,119,1,869,S,H,i,l,s,49,2339492,2340361,49,,,,Sub2
task,mainTask,4,D,504,120,1,820,H,S,i,g,s,49,2342221,2343041,49,,,,Sub2
task,mainTask,4,D,505,121,1,712,S,S,c,l,s,48,2344985,2345697,48,,,,Sub2
task,mainTask,4,D,506,122,1,806,S,H,i,g,s,48,2347682,2348488,48,,,,Sub2
task,mainTask,4,D,507,123,1,867,H,H,c,g,r,49,2350342,2351209,49,,,,Sub2
task,mainTask,4,D,508,124,1,1158,S,S,c,l,s,48,2353122,2354280,48,,,,Sub2
task,mainTask,4,D,509,125,1,833,S,S,c,l,r,48,2356223,2357056,48,,,,Sub2
task,mainTask,4,D,510,126,1,751,S,S,c,g,s,48,2359025,2359776,48,,,,Sub2
task,mainTask,4,D,511,127,1,1374,S,H,i,g,r,48,2361611,2362985,48,,,,Sub2
task,mainTask,4,D,512,128,1,627,H,H,c,l,s,49,2365029,2365656,49,,,,Sub2
prac1-1,instructions,1,,,,,,,,,,,,,,,0,26277,26277,Sub3
prac1-2,instructions,1,,,,,,,,,,,,,,,26279,61043,34764,Sub3
task,pracTask,1,,1,1,0,,H,H,c,l,n,,64586,,49,,,,Sub3
task,pracTask,1,,2,2,1,648,H,S,i,l,r,48,67807,68455,48,,,,Sub3
task,pracTask,1,,3,3,1,580,H,H,c,l,r,49,70483,71063,49,,,,Sub3
task,pracTask,1,,4,4,1,650,S,S,c,l,r,48,72993,73643,48,,,,Sub3
task,pracTask,1,,5,5,1,533,H,S,i,l,r,48,75744,76277,48,,,,Sub3
task,pracTask,1,,6,6,1,577,H,H,c,l,r,49,78352,78929,49,,,,Sub3
task,pracTask,1,,7,7,1,536,S,H,i,l,r,49,81007,81543,49,,,,Sub3
task,pracTask,1,,8,8,1,620,H,S,i,l,r,48,83554,84174,48,,,,Sub3
task,pracTask,1,,9,9,1,591,H,H,c,l,r,49,86234,86825,49,,,,Sub3
task,pracTask,1,,10,10,1,410,S,H,i,l,r,49,88900,89310,49,,,,Sub3
task,pracTask,1,,11,11,1,468,S,S,c,l,r,48,91249,91717,48,,,,Sub3
task,pracTask,1,,12,12,1,439,H,S,i,l,r,48,93847,94286,48,,,,Sub3
task,pracTask,1,,13,13,1,450,H,S,i,l,r,48,96247,96697,48,,,,Sub3
task,pracTask,1,,14,14,1,431,S,S,c,l,r,48,98824,99255,48,,,,Sub3
task,pracTask,1,,15,15,1,465,S,H,i,l,r,49,101376,101841,49,,,,Sub3
task,pracTask,1,,16,16,1,392,H,H,c,l,r,49,103928,104320,49,,,,Sub3
prac1-2,pracFeedback,1,,,,,,,,,,,,,,,105774,108166,2392,Sub3
prac2,instructions,1,,,,,,,,,,,,,,,108167,119993,11826,Sub3
task,pracTask,1,,1,1,1,734,H,H,c,g,n,49,123528,124262,49,,,,Sub3
task,pracTask,1,,2,2,0,367,H,S,i,g,r,48,126277,126644,49,,,,Sub3
task,pracTask,1,,3,3,1,751,H,S,i,g,r,49,128575,129326,49,,,,Sub3
task,pracTask,1,,4,4,1,691,H,S,i,g,r,49,131379,132070,49,,,,Sub3
task,pracTask,1,,5,5,1,917,S,S,c,g,r,48,133971,134888,48,,,,Sub3
task,pracTask,1,,6,6,1,654,H,S,i,g,r,49,136907,137561,49,,,,Sub3
task,pracTask,1,,7,7,1,642,H,H,c,g,r,49,139434,140076,49,,,,Sub3
task,pracTask,1,,8,8,1,529,H,H,c,g,r,49,142197,142726,49,,,,Sub3
task,pracTask,1,,9,9,1,562,H,S,i,g,r,49,144707,145269,49,,,,Sub3
task,pracTask,1,,10,10,1,464,H,H,c,g,r,49,147195,147659,49,,,,Sub3
task,pracTask,1,,11,11,1,649,S,H,i,g,r,48,149557,150206,48,,,,Sub3
task,pracTask,1,,12,12,1,538,H,H,c,g,r,49,152087,152625,49,,,,Sub3
task,pracTask,1,,13,13,1,662,S,S,c,g,r,48,154713,155375,48,,,,Sub3
task,pracTask,1,,14,14,1,641,S,H,i,g,r,48,157310,157951,48,,,,Sub3
task,pracTask,1,,15,15,1,656,H,S,i,g,r,49,159910,160566,49,,,,Sub3
task,pracTask,1,,16,16,1,588,H,H,c,g,r,49,162562,163150,49,,,,Sub3
prac2,pracFeedback,1,,,,,,,,,,,,,,,164614,166020,1406,Sub3
prac3,instructions,1,,,,,,,,,,,,,,,166021,211089,45068,Sub3
task,pracTask,1,,1,1,0,1120,H,S,i,l,n,49,214618,215738,48,,,,Sub3
task,pracTask,1,,2,2,1,1268,S,S,c,l,r,48,217587,218855,48,,,,Sub3
task,pracTask,1,,3,3,1,1182,H,H,c,l,r,49,220861,222043,49,,,,Sub3
task,pracTask,1,,4,4,1,1417,H,S,i,g,s,49,224058,225475,49,,,,Sub3
task,pracTask,1,,5,5,1,895,H,H,c,g,r,49,227446,228341,49,,,,Sub3
task,pracTask,1,,6,6,1,1353,S,H,i,g,r,48,230305,231658,48,,,,Sub3
task,pracTask,1,,7,7,1,1201,H,H,c,g,r,49,233714,234915,49,,,,Sub3
task,pracTask,1,,8,8,1,1063,S,H,i,l,s,49,236931,237994,49,,,,Sub3
task,pracTask,1,,9,9,1,1199,S,H,i,g,s,48,240067,241266,48,,,,Sub3
task,pracTask,1,,10,10,0,1404,S,S,c,l,s,49,243297,244701,48,,,,Sub3
task,pracTask,1,,11,11,0,,S,H,i,g,s,,246624,,48,,,,Sub3
task,pracTask,1,,12,12,1,1041,H,S,i,g,r,49,250046,251087,49,,,,Sub3
task,pracTask,1,,13,13,1,1014,H,H,c,l,s,49,253231,254245,49,,,,Sub3
task,pracTask,1,,14,14,1,1428,H,S,i,l,r,48,256329,257757,48,,,,Sub3
task,pracTask,1,,15,15,0,,S,S,c,l,r,,259757,,48,,,,Sub3
task,pracTask,1,,16,16,1,1249,S,S,c,g,s,48,263026,264275,48,,,,Sub3
prac3,pracFeedback,1,,,,,,,,,,,,,,,265749,267762,2013,Sub3
main1,instructions,1,,,,,,,,,,,,,,,267763,284300,16537,Sub3
main2,instructions,1,,,,,,,,,,,,,,,284302,293767,9465,Sub3
task,mainTask,1,D,1,1,1,951,S,H,i,l,n,49,297298,298249,49,,,,Sub3
task,mainTask,1,D,2,2,1,710,H,H,c,g,s,49,300247,300957,49,,,,Sub3
task,mainTask,1,D,3,3,1,755,H,H,c,l,s,49,302884,303639,49,,,,Sub3
task,mainTask,1,D,4,4,1,715,H,H,c,g,s,49,305486,306201,49,,,,Sub3
task,mainTask,1,D,5,5,1,752,S,S,c,l,s,48,308117,308869,48,,,,Sub3
task,mainTask,1,D,6,6,1,1006,S,S,c,l,r,48,310946,311952,48,,,,Sub3
task,mainTask,1,D,7,7,1,955,H,S,i,g,s,49,313871,314826,49,,,,Sub3
task,mainTask,1,D,8,8,1,764,S,S,c,l,s,48,316774,317538,48,,,,Sub3
task,mainTask,1,D,9,9,1,933,H,H,c,g,s,49,319518,320451,49,,,,Sub3
task,mainTask,1,D,10,10,1,880,S,S,c,l,s,48,322373,323253,48,,,,Sub3
task,mainTask,1,D,11,11,1,631,H,H,c,g,s,49,325314,325945,49,,,,Sub3
task,mainTask,1,D,12,12,1,718,S,S,c,l,s,48,327812,328530,48,,,,Sub3
task,mainTask,1,D,13,13,1,1040,H,S,i,g,s,49,330422,331462,49,,,,Sub3
task,mainTask,1,D,14,14,0,1303,H,H,c,l,s,48,333490,334793,49,,,,Sub3
task,mainTask,1,D,15,15,1,1370,H,H,c,g,s,49,336757,338127,49,,,,Sub3
task,mainTask,1,D,16,16,1,761,S,S,c,l,s,48,340030,340791,48,,,,Sub3
task,mainTask,1,D,17,17,1,1106,H,S,i,g,s,49,342758,343864,49,,,,Sub3
task,mainTask,1,D,18,18,1,979,H,H,c,l,s,49,345894,346873,49,,,,Sub3
task,mainTask,1,D,19,19,1,1095,H,S,i,l,r,48,348776,349871,48,,,,Sub3
task,mainTask,1,D,20,20,1,1083,S,S,c,l,r,48,351711,352794,48,,,,Sub3
task,mainTask,1,D,21,21,1,1060,H,S,i,g,s,49,354838,355898,49,,,,Sub3
task,mainTask,1,D,22,22,1,1240,S,H,i,l,s,49,357921,359161,49,,,,Sub3
task,mainTask,1,D,23,23,1,1132,H,H,c,g,s,49,361167,362299,49,,,,Sub3
task,mainTask,1,D,24,24,1,877,H,H,c,l,s,49,364150,365027,49,,,,Sub3
task,mainTask,1,D,25,25,1,784,H,H,c,l,r,49,367100,367884,49,,,,Sub3
task,mainTask,1,D,26,26,1,958,H,H,c,l,r,49,369758,370716,49,,,,Sub3
task,mainTask,1,D,27,27,1,990,S,S,c,g,s,48,372641,373631,48,,,,Sub3
task,mainTask,1,D,28,28,1,932,H,H,c,l,s,49,375488,376420,49,,,,Sub3
task,mainTask,1,D,29,29,1,1234,H,H,c,g,s,49,378533,379767,49,,,,Sub3
task,mainTask,1,D,30,30,1,1199,S,S,c,g,r,48,381771,382970,48,,,,Sub3
task,mainTask,1,D,31,31,0,,S,S,c,l,s,,385035,,48,,,,Sub3
task,mainTask,1,D,32,32,1,1209,H,S,i,g,s,49,388446,389655,49,,,,Sub3
task,mainTask,1,D,33,33,0,1270,S,H,i,l,s,48,391492,392762,49,,,,Sub3
task,mainTask,1,D,34,34,1,1485,H,S,i,l,r,48,394802,396287,48,,,,Sub3
task,mainTask,1,D,35,35,1,793,H,H,c,g,s,49,398011,398804,49,,,,Sub3
task,mainTask,1,D,36,36,1,1169,H,S,i,l,s,48,400766,401935,48,,,,Sub3
task,mainTask,1,D,37,37,1,1054,H,S,i,g,s,49,403834,404888,49,,,,Sub3
task,mainTask,1,D,38,38,1,1350,S,S,c,g,r,48,406792,408142,48,,,,Sub3
task,mainTask,1,D,39,39,1,778,H,H,c,l,s,49,410127,410905,49,,,,Sub3
task,mainTask,1,D,40,40,1,1197,H,H,c,l,r,49,412857,414054,49,,,,Sub3
task,mainTask,1,D,41,41,0,,S,H,i,l,r,,415888,,49,,,,Sub3
task,mainTask,1,D,42,42,0,1298,H,H,c,g,s,48,419311,420609,49,,,,Sub3
task,mainTask,1,D,43,43,1,1319,H,H,c,l,s,49,422588,423907,49,,,,Sub3
task,mainTask,1,D,44,44,1,989,S,S,c,g,s,48,425906,426895,48,,,,Sub3
task,mainTask,1,D,45,45,1,1218,S,S,c,g,r,48,428858,430076,48,,,,Sub3
task,mainTask,1,D,46,46,0,,S,S,c,l,s,,431953,,48,,,,Sub3
task,mainTask,1,D,47,47,0,,H,H,c,g,s,,435189,,49,,,,Sub3
task,mainTask,1,D,48,48,1,1131,S,S,c,l,s,48,438616,439747,48,,,,Sub3
task,mainTask,1,D,49,49,1,986,S,S,c,g,s,48,441815,442801,48,,,,Sub3
task,mainTask,1,D,50,50,1,1097,H,H,c,g,r,49,444684,445781,49,,,,Sub3
task,mainTask,1,D,51,51,1,1047,S,S,c,g,r,48,447636,448683,48,,,,Sub3
task,mainTask,1,D,52,52,1,973,H,H,c,g,r,49,450565,451538,49,,,,Sub3
task,mainTask,1,D,53,53,1,787,H,H,c,g,r,49,453588,454375,49,,,,Sub3
task,mainTask,1,D,54,54,1,897,H,H,c,l,s,49,456251,457148,49,,,,Sub3
task,mainTask,1,D,55,55,1,1010,H,S,i,g,s,49,459064,460074,49,,,,Sub3
task,mainTask,1,D,56,56,1,852,H,S,i,l,s,48,461994,462846,48,,,,Sub3
task,mainTask,1,D,57,57,1,795,H,H,c,g,s,49,464921,465716,49,,,,Sub3
task,mainTask,1,D,58,58,1,854,S,H,i,l,s,49,467558,468412,49,,,,Sub3
task,mainTask,1,D,59,59,0,997,S,H,i,g,s,49,470295,471292,48,,,,Sub3
task,mainTask,1,D,60,60,0,1237,S,H,i,l,s,48,473289,474526,49,,,,Sub3
task,mainTask,1,D,61,61,1,1119,H,S,i,g,s,49,476350,477469,49,,,,Sub3
task,mainTask,1,D,62,62,1,1430,S,S,c,g,r,48,479345,480775,48,,,,Sub3
task,mainTask,1,D,63,63,1,744,S,S,c,l,s,48,482730,483474,48,,,,Sub3
task,mainTask,1,D,64,64,1,847,S,S,c,g,s,48,485496,486343,48,,,,Sub3
task,mainTask,1,D,65,65,1,885,H,H,c,l,s,49,488402,489287,49,,,,Sub3
task,mainTask,1,D,66,66,1,1023,H,H,c,g,s,49,491218,492241,49,,,,Sub3
task,mainTask,1,D,67,67,0,,S,S,c,g,r,,494222,,48,,,,Sub3
task,mainTask,1,D,68,68,1,1086,S,S,c,l,s,48,497649,498735,48,,,,Sub3
task,mainTask,1,D,69,69,1,715,H,H,c,g,s,49,500649,501364,49,,,,Sub3
task,mainTask,1,D,70,70,1,804,S,S,c,l,s,48,503390,504194,48,,,,Sub3
task,mainTask,1,D,71,71,1,898,S,S,c,g,s,48,506240,507138,48,,,,Sub3
task,mainTask,1,D,72,72,1,808,S,S,c,l,s,48,509205,510013,48,,,,Sub3
task,mainTask,1,D,73,73,1,804,H,H,c,g,s,49,512021,512825,49,,,,Sub3
task,mainTask,1,D,74,74,1,646,H,H,c,l,s,49,514758,515404,49,,,,Sub3
task,mainTask,1,D,75,75,1,996,S,H,i,g,s,48,517405,518401,48,,,,Sub3
task,mainTask,1,D,76,76,1,786,H,H,c,l,s,49,520484,521270,49,,,,Sub3
task,mainTask,1,D,77,77,1,787,S,S,c,g,s,48,523298,524085,48,,,,Sub3
task,mainTask,1,D,78,78,1,991,S,S,c,l,s,48,526143,527134,48,,,,Sub3
task,mainTask,1,D,79,79,1,767,H,H,c,g,s,49,529152,529919,49,,,,Sub3
task,mainTask,1,D,80,80,1,1245,S,S,c,l,s,48,531829,533074,48,,,,Sub3
task,mainTask,1,D,81,81,1,937,H,S,i,g,s,49,535034,535971,49,,,,Sub3
task,mainTask,1,D,82,82,1,969,H,H,c,l,s,49,537849,538818,49,,,,Sub3
task,mainTask,1,D,83,83,1,831,H,H,c,g,s,49,540821,541652,49,,,,Sub3
task,mainTask,1,D,84,84,0,1344,H,H,c,l,s,48,543640,544984,49,,,,Sub3
task,mainTask,1,D,85,85,1,929,S,S,c,g,s,48,546771,547700,48,,,,Sub3
task,mainTask,1,D,86,86,1,921,S,S,c,l,s,48,549737,550658,48,,,,Sub3
task,mainTask,1,D,87,87,1,778,H,H,c,g,s,49,552539,553317,49,,,,Sub3
task,mainTask,1,D,88,88,1,648,H,H,c,g,r,49,555173,555821,49,,,,Sub3
task,mainTask,1,D,89,89,0,1087,H,H,c,l,s,48,557734,558821,49,,,,Sub3
task,mainTask,1,D,90,90,0,1048,H,S,i,l,r,49,560749,561797,48,,,,Sub3
task,mainTask,1,D,91,91,1,739,H,H,c,g,s,49,563681,564420,49,,,,Sub3
task,mainTask,1,D,92,92,1,876,S,H,i,l,s,49,566458,567334,49,,,,Sub3
task,mainTask,1,D,93,93,0,1004,S,S,c,l,r,49,569260,570264,48,,,,Sub3
task,mainTask,1,D,94,94,1,1016,S,S,c,g,s,48,572110,573126,48,,,,Sub3
task,mainTask,1,D,95,95,1,880,S,S,c,l,s,48,575027,575907,48,,,,Sub3
task,mainTask,1,D,96,96,1,852,S,S,c,l,r,48,577869,578721,48,,,,Sub3
task,mainTask,1,D,97,97,1,683,H,H,c,g,s,49,580679,581362,49,,,,Sub3
task,mainTask,1,D,98,98,0,,H,S,i,l,s,,583366,,48,,,,Sub3
task,mainTask,1,D,99,99,1,1066,S,H,i,g,s,48,586794,587860,48,,,,Sub3
task,mainTask,1,D,100,100,1,1111,S,S,c,g,r,48,589843,590954,48,,,,Sub3
task,mainTask,1,D,101,101,1,673,S,S,c,g,r,48,592946,593619,48,,,,Sub3
task,mainTask,1,D,102,102,0,937,H,S,i,l,s,49,595521,596458,48,,,,Sub3
task,mainTask,1,D,103,103,1,1067,H,S,i,g,s,49,598356,599423,49,,,,Sub3
task,mainTask,1,D,104,104,1,973,S,S,c,l,s,48,601409,602382,48,,,,Sub3
task,mainTask,1,D,105,105,0,1010,S,H,i,g,s,49,604459,605469,48,,,,Sub3
task,mainTask,1,D,106,106,1,1018,H,H,c,l,s,49,607398,608416,49,,,,Sub3
task,mainTask,1,D,107,107,1,1175,H,H,c,l,r,49,610308,611483,49,,,,Sub3
task,mainTask,1,D,108,108,1,941,S,H,i,l,r,49,613501,614442,49,,,,Sub3
task,mainTask,1,D,109,109,1,1043,H,H,c,g,s,49,616539,617582,49,,,,Sub3
task,mainTask,1,D,110,110,1,782,S,S,c,l,s,48,619605,620387,48,,,,Sub3
task,mainTask,1,D,111,111,1,771,S,S,c,l,r,48,622315,623086,48,,,,Sub3
task,mainTask,1,D,112,112,1,711,H,H,c,g,s,49,625120,625831,49,,,,Sub3
task,mainTask,1,D,113,113,1,752,S,S,c,l,s,48,627764,628516,48,,,,Sub3
task,mainTask,1,D,114,114,1,573,H,H,c,g,s,49,630519,631092,49,,,,Sub3
task,mainTask,1,D,115,115,1,1110,H,H,c,g,r,49,632970,634080,49,,,,Sub3
task,mainTask,1,D,116,116,1,973,S,S,c,l,s,48,635975,636948,48,,,,Sub3
task,mainTask,1,D,117,117,1,647,H,S,i,l,r,48,638937,639584,48,,,,Sub3
task,mainTask,1,D,118,118,0,1158,S,S,c,g,s,49,641660,642818,48,,,,Sub3
task,mainTask,1,D,119,119,1,1331,S,H,i,l,s,49,644770,646101,49,,,,Sub3
task,mainTask,1,D,120,120,1,1137,H,H,c,g,s,49,647930,649067,49,,,,Sub3
task,mainTask,1,D,121,121,1,773,H,H,c,g,r,49,651020,651793,49,,,,Sub3
task,mainTask,1,D,122,122,1,1054,S,S,c,g,r,48,653855,654909,48,,,,Sub3
task,mainTask,1,D,123,123,1,1003,S,S,c,l,s,48,656941,657944,48,,,,Sub3
task,mainTask,1,D,124,124,1,895,H,H,c,l,r,49,659917,660812,49,,,,Sub3
task,mainTask,1,D,125,125,1,966,H,H,c,g,s,49,662745,663711,49,,,,Sub3
task,mainTask,1,D,126,126,1,870,S,S,c,l,s,48,665593,666463,48,,,,Sub3
task,mainTask,1,D,127,127,1,879,H,H,c,g,s,49,668415,669294,49,,,,Sub3
task,mainTask,1,D,128,128,0,1037,H,S,i,g,r,48,671153,672190,49,,,,Sub3
feedback,bigBlock,2,A,,,,,,,,,,,,,,673761,704685,30924,Sub3
task,mainTask,2,A,129,1,0,1360,S,H,i,l,n,48,708213,709573,49,,,,Sub3
task,mainTask,2,A,130,2,1,956,H,S,i,l,r,48,711629,712585,48,,,,Sub3
task,mainTask,2,A,131,3,0,864,H,H,c,l,r,48,714477,715341,49,,,,Sub3
task,mainTask,2,A,132,4,1,1219,H,H,c,g,s,49,717309,718528,49,,,,Sub3
task,mainTask,2,A,133,5,0,1045,S,H,i,g,r,49,720461,721506,48,,,,Sub3
task,mainTask,2,A,134,6,1,1382,H,H,c,l,s,49,723288,724670,49,,,,Sub3
task,mainTask,2,A,135,7,1,788,H,S,i,l,r,48,726608,727396,48,,,,Sub3
task,mainTask,2,A,136,8,1,1389,S,H,i,l,r,49,729427,730816,49,,,,Sub3
task,mainTask,2,A,137,9,1,995,H,S,i,l,r,48,732829,733824,48,,,,Sub3
task,mainTask,2,A,138,10,1,599,H,S,i,l,r,48,735770,736369,48,,,,Sub3
task,mainTask,2,A,139,11,1,719,H,S,i,l,r,48,738466,739185,48,,,,Sub3
task,mainTask,2,A,140,12,1,740,H,H,c,l,r,49,741097,741837,49,,,,Sub3
task,mainTask,2,A,141,13,1,799,S,H,i,l,r,49,743861,744660,49,,,,Sub3
task,mainTask,2,A,142,14,1,718,H,S,i,l,r,48,746718,747436,48,,,,Sub3
task,mainTask,2,A,143,15,0,1134,H,S,i,g,s,48,749492,750626,49,,,,Sub3
task,mainTask,2,A,144,16,1,889,H,S,i,l,s,48,752631,753520,48,,,,Sub3
task,mainTask,2,A,145,17,1,729,S,H,i,l,r,49,755523,756252,49,,,,Sub3
task,mainTask,2,A,146,18,0,1016,S,H,i,g,s,49,758209,759225,48,,,,Sub3
task,mainTask,2,A,147,19,1,1279,S,S,c,g,r,48,761052,762331,48,,,,Sub3
task,mainTask,2,A,148,20,1,902,S,H,i,g,r,48,764309,765211,48,,,,Sub3
task,mainTask,2,A,149,21,1,934,S,H,i,l,s,49,767154,768088,49,,,,Sub3
task,mainTask,2,A,150,22,1,685,S,S,c,l,r,48,770137,770822,48,,,,Sub3
task,mainTask,2,A,151,23,1,987,H,S,i,g,s,49,772880,773867,49,,,,Sub3
task,mainTask,2,A,152,24,1,860,H,S,i,g,r,49,775812,776672,49,,,,Sub3
task,mainTask,2,A,153,25,1,714,H,S,i,l,s,48,778742,779456,48,,,,Sub3
task,mainTask,2,A,154,26,0,1276,S,H,i,l,r,48,781424,782700,49,,,,Sub3
task,mainTask,2,A,155,27,1,1197,S,H,i,g,s,48,784659,785856,48,,,,Sub3
task,mainTask,2,A,156,28,0,,S,H,i,g,r,,787863,,48,,,,Sub3
task,mainTask,2,A,157,29,1,1451,H,S,i,g,r,49,791207,792658,49,,,,Sub3
task,mainTask,2,A,158,30,0,1322,S,H,i,g,r,49,794573,795895,48,,,,Sub3
task,mainTask,2,A,159,31,1,1441,H,S,i,g,r,49,797757,799198,49,,,,Sub3
task,mainTask,2,A,160,32,1,1004,H,S,i,g,r,49,801125,802129,49,,,,Sub3
task,mainTask,2,A,161,33,0,1147,S,S,c,g,r,49,804100,805247,48,,,,Sub3
task,mainTask,2,A,162,34,1,911,H,S,i,g,r,49,807276,808187,49,,,,Sub3
task,mainTask,2,A,163,35,1,1150,S,H,i,g,r,48,810081,811231,48,,,,Sub3
task,mainTask,2,A,164,36,1,1224,S,H,i,g,r,48,813373,814597,48,,,,Sub3
task,mainTask,2,A,165,37,1,1035,S,H,i,g,r,48,816545,817580,48,,,,Sub3
task,mainTask,2,A,166,38,1,977,H,H,c,g,r,49,819551,820528,49,,,,Sub3
task,mainTask,2,A,167,39,1,901,S,H,i,g,r,48,822608,823509,48,,,,Sub3
task,mainTask,2,A,168,40,1,1332,S,H,i,g,r,48,825557,826889,48,,,,Sub3
task,mainTask,2,A,169,41,1,805,H,S,i,g,r,49,828752,829557,49,,,,Sub3
task,mainTask,2,A,170,42,1,789,H,S,i,g,r,49,831441,832230,49,,,,Sub3
task,mainTask,2,A,171,43,1,837,S,S,c,l,s,48,834310,835147,48,,,,Sub3
task,mainTask,2,A,172,44,1,1047,H,H,c,l,r,49,837231,838278,49,,,,Sub3
task,mainTask,2,A,173,45,1,1347,H,S,i,g,s,49,840140,841487,49,,,,Sub3
task,mainTask,2,A,174,46,1,1087,H,S,i,g,r,49,843561,844648,49,,,,Sub3
task,mainTask,2,A,175,47,1,931,H,H,c,g,r,49,846686,847617,49,,,,Sub3
task,mainTask,2,A,176,48,0,1340,H,S,i,l,s,49,849622,850962,48,,,,Sub3
task,mainTask,2,A,177,49,1,1166,S,H,i,g,s,48,852992,854158,48,,,,Sub3
task,mainTask,2,A,178,50,1,1024,H,H,c,g,r,49,856140,857164,49,,,,Sub3
task,mainTask,2,A,179,51,1,1132,H,S,i,g,r,49,859046,860178,49,,,,Sub3
task,mainTask,2,A,180,52,1,1225,H,S,i,l,s,48,862052,863277,48,,,,Sub3
task,mainTask,2,A,181,53,1,747,H,S,i,l,r,48,865330,866077,48,,,,Sub3
task,mainTask,2,A,182,54,1,1351,S,H,i,g,s,48,868012,869363,48,,,,Sub3
task,mainTask,2,A,183,55,0,1342,H,S,i,l,s,49,871258,872600,48,,,,Sub3
task,mainTask,2,A,184,56,1,1336,S,H,i,l,r,49,874621,875957,49,,,,Sub3
task,mainTask,2,A,185,57,1,1361,S,H,i,l,r,49,878011,879372,49,,,,Sub3
task,mainTask,2,A,186,58,0,,S,S,c,g,s,,881290,,48,,,,Sub3
task,mainTask,2,A,187,59,0,1265,S,H,i,g,r,49,884520,885785,48,,,,Sub3
task,mainTask,2,A,188,60,1,1013,S,H,i,g,r,48,887725,888738,48,,,,Sub3
task,mainTask,2,A,189,61,1,1055,H,S,i,g,r,49,890821,891876,49,,,,Sub3
task,mainTask,2,A,190,62,1,968,H,S,i,g,r,49,893769,894737,49,,,,Sub3
task,mainTask,2,A,191,63,1,888,H,S,i,g,r,49,896687,897575,49,,,,Sub3
task,mainTask,2,A,192,64,1,1240,H,H,c,g,r,49,899530,900770,49,,,,Sub3
task,mainTask,2,A,193,65,1,672,H,H,c,g,r,49,902836,903508,49,,,,Sub3
task,mainTask,2,A,194,66,1,853,H,S,i,g,r,49,905420,906273,49,,,,Sub3
task,mainTask,2,A,195,67,1,730,H,S,i,g,r,49,908279,909009,49,,,,Sub3
task,mainTask,2,A,196,68,1,970,S,H,i,g,r,48,910962,911932,48,,,,Sub3
task,mainTask,2,A,197,69,1,833,H,S,i,g,r,49,913943,914776,49,,,,Sub3
task,mainTask,2,A,198,70,1,775,S,S,c,g,r,48,916651,917426,48,,,,Sub3
task,mainTask,2,A,199,71,1,776,H,S,i,g,r,49,919498,920274,49,,,,Sub3
task,mainTask,2,A,200,72,1,734,H,S,i,g,r,49,922343,923077,49,,,,Sub3
task,mainTask,2,A,201,73,1,667,S,H,i,g,r,48,925084,925751,48,,,,Sub3
task,mainTask,2,A,202,74,1,971,S,S,c,l,s,48,927746,928717,48,,,,Sub3
