expStage,sectionType,block,blockType,trialCount,blockTrialCount,acc,RT,stimulus,targetNum,distractorNum,stimCongruency,taskCue,switchType,taskRelevancy,partKey,stimOnset,respOnset,blockType2,sectionStart,sectionEnd,sectionTime,subject
prac1-1,instructions,1,,,,,,,,,,,,,,,,,1,23511,23510,Sub1
prac1-2,instructions,1,,,,,,,,,,,,,,,,,23515,33764,10249,Sub1
prac1-3,instructions,1,,,,,,,,,,,,,,,,,33764,44882,11118,Sub1
task,pracTask,1,,1,1,1,597,22122,1,2,parityInc,p,n,t,110,48405,49002,,,,,Sub1
task,pracTask,1,,2,2,1,572,11411,4,1,parityInc,p,r,t,109,51025,51597,,,,,Sub1
task,pracTask,1,,3,3,1,620,99999,9,9,congruent,p,r,t,110,53528,54148,,,,,Sub1
task,pracTask,1,,4,4,1,622,44344,3,4,parityInc,p,r,t,110,56096,56718,,,,,Sub1
task,pracTask,1,,5,5,1,542,77677,6,7,parityInc,p,r,t,109,58585,59127,,,,,Sub1
task,pracTask,1,,6,6,1,565,88888,8,8,congruent,p,r,t,109,61038,61603,,,,,Sub1
task,pracTask,1,,7,7,1,541,77677,6,7,parityInc,p,r,t,109,63570,64111,,,,,Sub1
task,pracTask,1,,8,8,1,488,22222,2,2,congruent,p,r,t,109,65975,66463,,,,,Sub1
task,pracTask,1,,9,9,1,709,22122,1,2,parityInc,p,r,t,110,68372,69081,,,,,Sub1
task,pracTask,1,,10,10,1,393,44444,4,4,congruent,p,r,t,109,70913,71306,,,,,Sub1
task,pracTask,1,,11,11,1,600,77777,7,7,congruent,p,r,t,110,73323,73923,,,,,Sub1
task,pracTask,1,,12,12,1,448,88888,8,8,congruent,p,r,t,109,75813,76261,,,,,Sub1
task,pracTask,1,,13,13,1,540,33233,2,3,parityInc,p,r,t,109,78274,78814,,,,,Sub1
task,pracTask,1,,14,14,1,594,99999,9,9,congruent,p,r,t,110,80719,81313,,,,,Sub1
task,pracTask,1,,15,15,1,517,77777,7,7,congruent,p,r,t,110,83258,83775,,,,,Sub1
task,pracTask,1,,16,16,1,506,44344,3,4,parityInc,p,r,t,110,85587,86093,,,,,Sub1
prac1-3,pracFeedback,1,,,,,,,,,,,,,,,,,87457,132606,45149,Sub1
prac2,instructions,1,,,,,,,,,,,,,,,,,132607,160641,28034,Sub1
task,pracTask,1,,1,1,1,846,77177,1,7,magnitudeInc,m,n,t,120,164153,164999,,,,,Sub1
task,pracTask,1,,2,2,1,713,66466,4,6,magnitudeInc,m,r,t,120,166873,167586,,,,,Sub1
task,pracTask,1,,3,3,1,472,99399,3,9,magnitudeInc,m,r,t,120,169607,170079,,,,,Sub1
task,pracTask,1,,4,4,1,556,11711,7,1,magnitudeInc,m,r,t,122,172135,172691,,,,,Sub1
task,pracTask,1,,5,5,1,420,22222,2,2,congruent,m,r,t,120,174775,175195,,,,,Sub1
task,pracTask,1,,6,6,1,681,66466,4,6,magnitudeInc,m,r,t,120,177132,177813,,,,,Sub1
task,pracTask,1,,7,7,1,805,88888,8,8,congruent,m,r,t,122,179776,180581,,,,,Sub1
task,pracTask,1,,8,8,0,731,77777,7,7,congruent,m,r,t,120,182521,183252,,,,,Sub1
task,pracTask,1,,9,9,1,565,66666,6,6,congruent,m,r,t,122,185077,185642,,,,,Sub1
task,pracTask,1,,10,10,1,525,88888,8,8,congruent,m,r,t,122,187693,188218,,,,,Sub1
task,pracTask,1,,11,11,1,692,99399,3,9,magnitudeInc,m,r,t,120,190159,190851,,,,,Sub1
task,pracTask,1,,12,12,1,611,33933,9,3,magnitudeInc,m,r,t,122,192811,193422,,,,,Sub1
task,pracTask,1,,13,13,1,471,11111,1,1,congruent,m,r,t,120,195351,195822,,,,,Sub1
task,pracTask,1,,14,14,1,612,99999,9,9,congruent,m,r,t,122,197882,198494,,,,,Sub1
task,pracTask,1,,15,15,1,601,66666,6,6,congruent,m,r,t,122,200347,200948,,,,,Sub1
task,pracTask,1,,16,16,1,634,88288,2,8,magnitudeInc,m,r,t,120,202926,203560,,,,,Sub1
prac2,pracFeedback,1,,,,,,,,,,,,,,,,,205021,206770,1749,Sub1
prac3,instructions,1,,,,,,,,,,,,,,,,,206771,240287,33516,Sub1
task,pracTask,1,,1,1,0,1173,77677,6,7,parityInc,p,n,t,110,243800,244973,,,,,Sub1
task,pracTask,1,,2,2,1,972,11411,4,1,parityInc,p,r,t,109,246769,247741,,,,,Sub1
task,pracTask,1,,3,3,1,1401,77177,1,7,magnitudeInc,m,s,t,120,249640,251041,,,,,Sub1
task,pracTask,1,,4,4,1,689,77777,7,7,congruent,m,r,t,122,253064,253753,,,,,Sub1
task,pracTask,1,,5,5,1,1099,33233,2,3,parityInc,p,s,t,109,255712,256811,,,,,Sub1
task,pracTask,1,,6,6,1,1585,99399,3,9,magnitudeInc,m,s,t,120,258702,260287,,,,,Sub1
task,pracTask,1,,7,7,0,1707,66666,6,6,congruent,p,s,t,110,262086,263793,,,,,Sub1
task,pracTask,1,,8,8,1,1173,11111,1,1,congruent,p,r,t,110,265667,266840,,,,,Sub1
task,pracTask,1,,9,9,1,1041,33333,3,3,congruent,p,r,t,110,268750,269791,,,,,Sub1
task,pracTask,1,,10,10,1,1181,33933,9,3,magnitudeInc,m,s,t,122,271674,272855,,,,,Sub1
task,pracTask,1,,11,11,1,997,22222,2,2,congruent,p,s,t,109,274759,275756,,,,,Sub1
task,pracTask,1,,12,12,1,649,88888,8,8,congruent,p,r,t,109,277578,278227,,,,,Sub1
task,pracTask,1,,13,13,1,1151,66466,4,6,magnitudeInc,m,s,t,120,280142,281293,,,,,Sub1
task,pracTask,1,,14,14,1,683,99999,9,9,congruent,m,r,t,122,283121,283804,,,,,Sub1
task,pracTask,1,,15,15,1,983,11711,7,1,magnitudeInc,m,r,t,122,285715,286698,,,,,Sub1
task,pracTask,1,,16,16,1,646,88888,8,8,congruent,m,r,t,122,288629,289275,,,,,Sub1
prac3,pracFeedback,1,,,,,,,,,,,,,,,,,290615,292185,1570,Sub1
prac4,instructions,1,,,,,,,,,,,,,,,,,292186,328336,36150,Sub1
task,pracTask,1,,1,1,0,,88888,8,8,congruent,p,n,t,,331850,,,,,,Sub1
task,pracTask,1,,2,2,1,1359,11411,4,1,parityInc,p,r,t,109,335611,336970,,,,,Sub1
task,pracTask,1,,3,3,1,1568,33333,3,3,congruent,m,s,d,120,338786,340354,,,,,Sub1
task,pracTask,1,,4,4,1,1113,33933,9,3,magnitudeInc,m,r,t,122,342302,343415,,,,,Sub1
task,pracTask,1,,5,5,1,1277,44444,4,4,congruent,p,s,d,109,345296,346573,,,,,Sub1
task,pracTask,1,,6,6,1,1447,77677,6,7,parityInc,p,r,d,110,348567,350014,,,,,Sub1
task,pracTask,1,,7,7,1,1080,44344,3,4,parityInc,p,r,d,109,351960,353040,,,,,Sub1
task,pracTask,1,,8,8,1,1030,88288,2,8,magnitudeInc,m,s,t,120,354981,356011,,,,,Sub1
task,pracTask,1,,9,9,1,839,99999,9,9,congruent,m,r,t,122,357894,358733,,,,,Sub1
task,pracTask,1,,10,10,1,1370,11111,1,1,congruent,p,s,d,110,360734,362104,,,,,Sub1
task,pracTask,1,,11,11,1,1061,88788,7,8,parityInc,p,r,t,110,364049,365110,,,,,Sub1
task,pracTask,1,,12,12,1,1764,88288,2,8,magnitudeInc,m,s,d,122,367118,368882,,,,,Sub1
task,pracTask,1,,13,13,1,683,88888,8,8,congruent,m,r,d,122,370848,371531,,,,,Sub1
task,pracTask,1,,14,14,1,1004,11111,1,1,congruent,p,s,d,110,373622,374626,,,,,Sub1
task,pracTask,1,,15,15,0,1687,11711,7,1,magnitudeInc,m,s,t,110,376623,378310,,,,,Sub1
task,pracTask,1,,16,16,1,825,66666,6,6,congruent,m,r,t,122,380087,380912,,,,,Sub1
prac4,pracFeedback,1,,,,,,,,,,,,,,,,,382446,405523,23077,Sub1
main1,instructions,1,,,,,,,,,,,,,,,,,405524,425164,19640,Sub1
main2,instructions,1,,,,,,,,,,,,,,,,,425166,442390,17224,Sub1
task,mainTask,1,C,1,1,1,1341,22222,2,2,congruent,m,n,t,120,445915,447256,C,,,,Sub1
task,mainTask,1,C,2,2,1,965,88888,8,8,congruent,m,r,t,122,449111,450076,C,,,,Sub1
task,mainTask,1,C,3,3,1,961,66466,4,6,magnitudeInc,m,r,t,120,451991,452952,C,,,,Sub1
task,mainTask,1,C,4,4,1,813,77777,7,7,congruent,m,r,t,122,454902,455715,C,,,,Sub1
task,mainTask,1,C,5,5,1,646,88888,8,8,congruent,m,r,t,122,457628,458274,C,,,,Sub1
task,mainTask,1,C,6,6,1,674,33333,3,3,congruent,m,r,t,120,460274,460948,C,,,,Sub1
task,mainTask,1,C,7,7,1,969,66666,6,6,congruent,p,s,t,109,462935,463904,C,,,,Sub1
task,mainTask,1,C,8,8,1,1211,22122,1,2,parityInc,p,r,d,109,465919,467130,C,,,,Sub1
task,mainTask,1,C,9,9,1,820,66666,6,6,congruent,p,r,t,109,469091,469911,C,,,,Sub1
task,mainTask,1,C,10,10,1,805,99999,9,9,congruent,p,r,t,110,471872,472677,C,,,,Sub1
task,mainTask,1,C,11,11,1,1078,33333,3,3,congruent,p,r,t,110,474664,475742,C,,,,Sub1
task,mainTask,1,C,12,12,1,629,99999,9,9,congruent,p,r,t,110,477606,478235,C,,,,Sub1
task,mainTask,1,C,13,13,1,623,22222,2,2,congruent,p,r,t,109,480045,480668,C,,,,Sub1
task,mainTask,1,C,14,14,1,721,44444,4,4,congruent,p,r,t,109,482612,483333,C,,,,Sub1
task,mainTask,1,C,15,15,1,1255,88788,7,8,parityInc,p,r,d,109,485311,486566,C,,,,Sub1
task,mainTask,1,C,16,16,1,706,11111,1,1,congruent,m,s,t,120,488538,489244,C,,,,Sub1
task,mainTask,1,C,17,17,1,853,33933,9,3,magnitudeInc,m,r,t,122,491084,491937,C,,,,Sub1
task,mainTask,1,C,18,18,1,853,44844,8,4,magnitudeInc,m,r,t,122,493980,494833,C,,,,Sub1
task,mainTask,1,C,19,19,1,744,33333,3,3,congruent,m,r,t,120,496846,497590,C,,,,Sub1
task,mainTask,1,C,20,20,1,1053,77177,1,7,magnitudeInc,m,r,t,120,499628,500681,C,,,,Sub1
task,mainTask,1,C,21,21,1,516,33333,3,3,congruent,m,r,t,120,502626,503142,C,,,,Sub1
task,mainTask,1,C,22,22,1,938,77777,7,7,congruent,p,s,t,110,505089,506027,C,,,,Sub1
task,mainTask,1,C,23,23,1,637,44444,4,4,congruent,p,r,t,109,507915,508552,C,,,,Sub1
task,mainTask,1,C,24,24,1,912,22122,1,2,parityInc,p,r,d,109,510414,511326,C,,,,Sub1
task,mainTask,1,C,25,25,1,799,99999,9,9,congruent,m,s,t,122,513298,514097,C,,,,Sub1
task,mainTask,1,C,26,26,1,923,77777,7,7,congruent,m,r,t,122,515973,516896,C,,,,Sub1
task,mainTask,1,C,27,27,0,909,22222,2,2,congruent,m,r,t,122,518946,519855,C,,,,Sub1
task,mainTask,1,C,28,28,1,1469,66666,6,6,congruent,p,s,t,109,521886,523355,C,,,,Sub1
task,mainTask,1,C,29,29,1,1035,88888,8,8,congruent,m,s,t,122,525244,526279,C,,,,Sub1
task,mainTask,1,C,30,30,1,784,22222,2,2,congruent,m,r,d,120,528196,528980,C,,,,Sub1
task,mainTask,1,C,31,31,1,667,44444,4,4,congruent,m,r,t,120,530958,531625,C,,,,Sub1
task,mainTask,1,C,32,32,1,758,66666,6,6,congruent,p,s,t,109,533667,534425,C,,,,Sub1
task,mainTask,1,C,33,33,1,737,44444,4,4,congruent,p,r,t,109,536450,537187,C,,,,Sub1
task,mainTask,1,C,34,34,1,532,88888,8,8,congruent,p,r,t,109,539214,539746,C,,,,Sub1
task,mainTask,1,C,35,35,1,532,66666,6,6,congruent,p,r,t,109,541767,542299,C,,,,Sub1
task,mainTask,1,C,36,36,1,925,77877,8,7,parityInc,p,r,t,109,544189,545114,C,,,,Sub1
task,mainTask,1,C,37,37,1,827,11111,1,1,congruent,p,r,d,110,546974,547801,C,,,,Sub1
task,mainTask,1,C,38,38,1,550,66666,6,6,congruent,p,r,t,109,549765,550315,C,,,,Sub1
task,mainTask,1,C,39,39,1,1031,33933,9,3,magnitudeInc,m,s,t,122,552129,553160,C,,,,Sub1
task,mainTask,1,C,40,40,1,624,22222,2,2,congruent,m,r,t,120,555042,555666,C,,,,Sub1
task,mainTask,1,C,41,41,1,739,11111,1,1,congruent,m,r,t,120,557667,558406,C,,,,Sub1
task,mainTask,1,C,42,42,1,548,33333,3,3,congruent,m,r,t,120,560292,560840,C,,,,Sub1
task,mainTask,1,C,43,43,1,938,99999,9,9,congruent,p,s,t,110,562674,563612,C,,,,Sub1
task,mainTask,1,C,44,44,1,933,99399,3,9,magnitudeInc,m,s,t,120,565594,566527,C,,,,Sub1
task,mainTask,1,C,45,45,1,598,44444,4,4,congruent,p,s,t,109,568389,568987,C,,,,Sub1
task,mainTask,1,C,46,46,1,1064,77777,7,7,congruent,p,r,d,110,570914,571978,C,,,,Sub1
task,mainTask,1,C,47,47,1,637,22222,2,2,congruent,p,r,t,109,573934,574571,C,,,,Sub1
task,mainTask,1,C,48,48,0,781,77777,7,7,congruent,m,s,t,120,576555,577336,C,,,,Sub1
task,mainTask,1,C,49,49,1,784,66666,6,6,congruent,m,r,t,122,579389,580173,C,,,,Sub1
task,mainTask,1,C,50,50,1,1010,88888,8,8,congruent,p,s,t,109,582145,583155,C,,,,Sub1
task,mainTask,1,C,51,51,1,760,22122,1,2,parityInc,p,r,t,110,585083,585843,C,,,,Sub1
task,mainTask,1,C,52,52,1,844,88288,2,8,magnitudeInc,m,s,d,122,587746,588590,C,,,,Sub1
task,mainTask,1,C,53,53,1,916,66466,4,6,magnitudeInc,m,r,t,120,590537,591453,C,,,,Sub1
task,mainTask,1,C,54,54,1,957,44844,8,4,magnitudeInc,m,r,t,122,593382,594339,C,,,,Sub1
task,mainTask,1,C,55,55,1,1099,66666,6,6,congruent,m,r,d,122,596214,597313,C,,,,Sub1
task,mainTask,1,C,56,56,1,866,99999,9,9,congruent,m,r,t,122,599315,600181,C,,,,Sub1
task,mainTask,1,C,57,57,1,608,33333,3,3,congruent,m,r,t,120,602202,602810,C,,,,Sub1
task,mainTask,1,C,58,58,1,1115,88788,7,8,parityInc,p,s,t,110,604726,605841,C,,,,Sub1
task,mainTask,1,C,59,59,1,661,99999,9,9,congruent,p,r,t,110,607713,608374,C,,,,Sub1
task,mainTask,1,C,60,60,1,735,22222,2,2,congruent,p,r,t,109,610360,611095,C,,,,Sub1
task,mainTask,1,C,61,61,1,828,44444,4,4,congruent,m,s,t,120,613073,613901,C,,,,Sub1
task,mainTask,1,C,62,62,1,718,33333,3,3,congruent,p,s,t,110,615866,616584,C,,,,Sub1
task,mainTask,1,C,63,63,1,665,11111,1,1,congruent,p,r,t,110,618585,619250,C,,,,Sub1
task,mainTask,1,C,64,64,1,637,77777,7,7,congruent,p,r,t,110,621072,621709,C,,,,Sub1
feedback,miniblock,1,C,,,,,,,,,,,,,,,,623075,688027,64952,Sub1
task,mainTask,1,C,65,65,1,1354,22222,2,2,congruent,m,n,t,120,691540,692894,C,,,,Sub1
task,mainTask,1,C,66,66,1,966,33333,3,3,congruent,m,r,t,120,694794,695760,C,,,,Sub1
task,mainTask,1,C,67,67,1,943,66666,6,6,congruent,m,r,t,122,697615,698558,C,,,,Sub1
task,mainTask,1,C,68,68,1,588,44444,4,4,congruent,m,r,t,120,700546,701134,C,,,,Sub1
task,mainTask,1,C,69,69,1,693,44844,8,4,magnitudeInc,m,r,t,122,703152,703845,C,,,,Sub1
task,mainTask,1,C,70,70,1,1143,66666,6,6,congruent,p,s,t,109,705891,707034,C,,,,Sub1
task,mainTask,1,C,71,71,1,662,88888,8,8,congruent,p,r,t,109,708931,709593,C,,,,Sub1
task,mainTask,1,C,72,72,1,888,22222,2,2,congruent,m,s,t,120,711491,712379,C,,,,Sub1
task,mainTask,1,C,73,73,1,726,33333,3,3,congruent,m,r,t,120,714456,715182,C,,,,Sub1
task,mainTask,1,C,74,74,1,713,77777,7,7,congruent,m,r,t,122,717205,717918,C,,,,Sub1
task,mainTask,1,C,75,75,1,659,44444,4,4,congruent,m,r,d,120,719793,720452,C,,,,Sub1
task,mainTask,1,C,76,76,1,697,11111,1,1,congruent,p,s,t,110,722391,723088,C,,,,Sub1
task,mainTask,1,C,77,77,0,1112,99999,9,9,congruent,p,r,d,109,725064,726176,C,,,,Sub1
task,mainTask,1,C,78,78,1,838,22122,1,2,parityInc,p,r,t,110,728227,729065,C,,,,Sub1
task,mainTask,1,C,79,79,1,1380,77777,7,7,congruent,p,r,t,110,730928,732308,C,,,,Sub1
task,mainTask,1,C,80,80,1,566,99999,9,9,congruent,p,r,t,110,734213,734779,C,,,,Sub1
task,mainTask,1,C,81,81,1,556,11111,1,1,congruent,p,r,t,110,736609,737165,C,,,,Sub1
task,mainTask,1,C,82,82,1,677,77677,6,7,parityInc,p,r,t,109,739111,739788,C,,,,Sub1
task,mainTask,1,C,83,83,1,613,22222,2,2,congruent,p,r,t,109,741739,742352,C,,,,Sub1
task,mainTask,1,C,84,84,1,559,99999,9,9,congruent,p,r,t,110,744274,744833,C,,,,Sub1
task,mainTask,1,C,85,85,1,905,33333,3,3,congruent,p,r,t,110,746635,747540,C,,,,Sub1
task,mainTask,1,C,86,86,1,804,44444,4,4,congruent,p,r,t,109,749465,750269,C,,,,Sub1
task,mainTask,1,C,87,87,1,822,88888,8,8,congruent,p,r,d,109,752270,753092,C,,,,Sub1
task,mainTask,1,C,88,88,0,919,99999,9,9,congruent,m,s,t,120,755034,755953,C,,,,Sub1
task,mainTask,1,C,89,89,1,759,66666,6,6,congruent,m,r,t,122,757990,758749,C,,,,Sub1
task,mainTask,1,C,90,90,1,1069,77777,7,7,congruent,m,r,t,122,760599,761668,C,,,,Sub1
task,mainTask,1,C,91,91,0,850,66466,4,6,magnitudeInc,m,r,t,122,763592,764442,C,,,,Sub1
task,mainTask,1,C,92,92,1,562,88888,8,8,congruent,m,r,t,122,766454,767016,C,,,,Sub1
task,mainTask,1,C,93,93,1,897,44344,3,4,parityInc,p,s,t,110,768853,769750,C,,,,Sub1
task,mainTask,1,C,94,94,1,603,77777,7,7,congruent,p,r,t,110,771560,772163,C,,,,Sub1
task,mainTask,1,C,95,95,1,555,22222,2,2,congruent,p,r,t,109,774104,774659,C,,,,Sub1
task,mainTask,1,C,96,96,1,654,11111,1,1,congruent,p,r,d,110,776673,777327,C,,,,Sub1
task,mainTask,1,C,97,97,1,601,22222,2,2,congruent,p,r,t,109,779134,779735,C,,,,Sub1
task,mainTask,1,C,98,98,1,712,44344,3,4,parityInc,p,r,t,110,781750,782462,C,,,,Sub1
task,mainTask,1,C,99,99,1,1335,77177,1,7,magnitudeInc,m,s,t,120,784429,785764,C,,,,Sub1
task,mainTask,1,C,100,100,1,1099,33933,9,3,magnitudeInc,m,r,t,122,787704,788803,C,,,,Sub1
task,mainTask,1,C,101,101,1,1032,77677,6,7,parityInc,p,s,t,109,790744,791776,C,,,,Sub1
task,mainTask,1,C,102,102,1,747,44444,4,4,congruent,p,r,t,109,793769,794516,C,,,,Sub1
task,mainTask,1,C,103,103,1,779,33333,3,3,congruent,m,s,d,120,796554,797333,C,,,,Sub1
task,mainTask,1,C,104,104,1,1076,99999,9,9,congruent,p,s,t,110,799309,800385,C,,,,Sub1
task,mainTask,1,C,105,105,1,862,44444,4,4,congruent,m,s,t,120,802409,803271,C,,,,Sub1
task,mainTask,1,C,106,106,1,852,44844,8,4,magnitudeInc,m,r,t,122,805279,806131,C,,,,Sub1
task,mainTask,1,C,107,107,1,507,77777,7,7,congruent,m,r,t,122,808029,808536,C,,,,Sub1
task,mainTask,1,C,108,108,1,698,66666,6,6,congruent,m,r,t,122,810575,811273,C,,,,Sub1
task,mainTask,1,C,109,109,1,517,44844,8,4,magnitudeInc,m,r,t,122,813294,813811,C,,,,Sub1
task,mainTask,1,C,110,110,1,985,22222,2,2,congruent,m,r,t,120,815886,816871,C,,,,Sub1
task,mainTask,1,C,111,111,1,895,11111,1,1,congruent,m,r,t,120,818753,819648,C,,,,Sub1
task,mainTask,1,C,112,112,1,1050,11711,7,1,magnitudeInc,m,r,d,120,821515,822565,C,,,,Sub1
task,mainTask,1,C,113,113,1,1181,11111,1,1,congruent,p,s,t,110,824604,825785,C,,,,Sub1
task,mainTask,1,C,114,114,1,729,44444,4,4,congruent,p,r,t,109,827863,828592,C,,,,Sub1
task,mainTask,1,C,115,115,1,1229,44644,6,4,magnitudeInc,m,s,t,122,830468,831697,C,,,,Sub1
task,mainTask,1,C,116,116,1,957,33933,9,3,magnitudeInc,m,r,t,122,833605,834562,C,,,,Sub1
task,mainTask,1,C,117,117,0,1674,22222,2,2,congruent,m,r,t,109,836464,838138,C,,,,Sub1
task,mainTask,1,C,118,118,0,725,66666,6,6,congruent,m,r,t,109,840184,840909,C,,,,Sub1
task,mainTask,1,C,119,119,1,575,44844,8,4,magnitudeInc,m,r,t,122,842983,843558,C,,,,Sub1
task,mainTask,1,C,120,120,1,965,44444,4,4,congruent,m,r,d,120,845617,846582,C,,,,Sub1
task,mainTask,1,C,121,121,1,708,11711,7,1,magnitudeInc,m,r,t,122,848598,849306,C,,,,Sub1
task,mainTask,1,C,122,122,1,1016,99999,9,9,congruent,p,s,t,110,851334,852350,C,,,,Sub1
task,mainTask,1,C,123,123,1,1048,33333,3,3,congruent,p,r,d,110,854340,855388,C,,,,Sub1
task,mainTask,1,C,124,124,1,625,22222,2,2,congruent,p,r,t,109,857410,858035,C,,,,Sub1
task,mainTask,1,C,125,125,1,843,11111,1,1,congruent,p,r,t,110,860109,860952,C,,,,Sub1
task,mainTask,1,C,126,126,1,725,44344,3,4,parityInc,p,r,t,110,862956,863681,C,,,,Sub1
task,mainTask,1,C,127,127,1,991,88888,8,8,congruent,p,r,t,109,865662,866653,C,,,,Sub1
task,mainTask,1,C,128,128,1,805,77777,7,7,congruent,p,r,t,110,868538,869343,C,,,,Sub1
feedback,bigBlock,2,D,,,,,,,,,,,,,,,,870793,1004314,133521,Sub1
task,mainTask,2,D,129,1,0,1416,44444,4,4,congruent,m,n,t,109,1007832,1009248,D,,,,Sub1
task,mainTask,2,D,130,2,1,1079,99999,9,9,congruent,p,s,t,110,1011125,1012204,D,,,,Sub1
task,mainTask,2,D,131,3,1,1302,77177,1,7,magnitudeInc,m,s,t,120,1014083,1015385,D,,,,Sub1
task,mainTask,2,D,132,4,1,827,77777,7,7,congruent,m,r,t,122,1017268,1018095,D,,,,Sub1
task,mainTask,2,D,133,5,1,850,99999,9,9,congruent,p,s,t,110,1020147,1020997,D,,,,Sub1
task,mainTask,2,D,134,6,1,936,33333,3,3,congruent,m,s,t,120,1022996,1023932,D,,,,Sub1
task,mainTask,2,D,135,7,1,1073,77777,7,7,congruent,m,r,t,122,1025897,1026970,D,,,,Sub1
task,mainTask,2,D,136,8,1,920,66666,6,6,congruent,p,s,t,109,1028831,1029751,D,,,,Sub1
task,mainTask,2,D,137,9,1,1145,88888,8,8,congruent,m,s,t,122,1031623,1032768,D,,,,Sub1
task,mainTask,2,D,138,10,1,802,22222,2,2,congruent,p,s,t,109,1034697,1035499,D,,,,Sub1
task,mainTask,2,D,139,11,1,760,44844,8,4,magnitudeInc,m,s,t,122,1037546,1038306,D,,,,Sub1
task,mainTask,2,D,140,12,1,971,44444,4,4,congruent,p,s,d,109,1040212,1041183,D,,,,Sub1
task,mainTask,2,D,141,13,1,587,11111,1,1,congruent,p,r,t,110,1043196,1043783,D,,,,Sub1
task,mainTask,2,D,142,14,1,841,33333,3,3,congruent,m,s,t,120,1045606,1046447,D,,,,Sub1
task,mainTask,2,D,143,15,1,639,22222,2,2,congruent,p,s,d,109,1048323,1048962,D,,,,Sub1
task,mainTask,2,D,144,16,1,763,66666,6,6,congruent,m,s,t,122,1050861,1051624,D,,,,Sub1
task,mainTask,2,D,145,17,1,737,33333,3,3,congruent,p,s,t,110,1053652,1054389,D,,,,Sub1
task,mainTask,2,D,146,18,1,662,99999,9,9,congruent,m,s,t,122,1056230,1056892,D,,,,Sub1
task,mainTask,2,D,147,19,1,838,77777,7,7,congruent,p,s,t,110,1058965,1059803,D,,,,Sub1
task,mainTask,2,D,148,20,1,1416,22222,2,2,congruent,m,s,t,120,1061863,1063279,D,,,,Sub1
task,mainTask,2,D,149,21,1,869,88888,8,8,congruent,p,s,t,109,1065123,1065992,D,,,,Sub1
task,mainTask,2,D,150,22,1,1118,44644,6,4,magnitudeInc,m,s,t,122,1067990,1069108,D,,,,Sub1
task,mainTask,2,D,151,23,1,975,66966,9,6,parityInc,p,s,t,110,1071006,1071981,D,,,,Sub1
task,mainTask,2,D,152,24,1,562,88888,8,8,congruent,p,r,d,109,1073957,1074519,D,,,,Sub1
task,mainTask,2,D,153,25,1,981,44444,4,4,congruent,p,r,t,109,1076610,1077591,D,,,,Sub1
task,mainTask,2,D,154,26,1,630,11111,1,1,congruent,p,r,t,110,1079610,1080240,D,,,,Sub1
task,mainTask,2,D,155,27,1,933,22222,2,2,congruent,m,s,d,120,1082218,1083151,D,,,,Sub1
task,mainTask,2,D,156,28,0,1032,33333,3,3,congruent,p,s,t,109,1085198,1086230,D,,,,Sub1
task,mainTask,2,D,157,29,1,716,44444,4,4,congruent,m,s,t,120,1088208,1088924,D,,,,Sub1
task,mainTask,2,D,158,30,1,974,88788,7,8,parityInc,p,s,t,110,1090979,1091953,D,,,,Sub1
task,mainTask,2,D,159,31,1,967,44644,6,4,magnitudeInc,m,s,t,122,1093929,1094896,D,,,,Sub1
task,mainTask,2,D,160,32,1,992,11111,1,1,congruent,p,s,t,110,1096754,1097746,D,,,,Sub1
task,mainTask,2,D,161,33,1,1294,99399,3,9,magnitudeInc,m,s,t,120,1099670,1100964,D,,,,Sub1
task,mainTask,2,D,162,34,1,820,44444,4,4,congruent,m,r,t,120,1103042,1103862,D,,,,Sub1
task,mainTask,2,D,163,35,1,1208,66666,6,6,congruent,p,s,t,109,1105771,1106979,D,,,,Sub1
task,mainTask,2,D,164,36,1,1217,88288,2,8,magnitudeInc,m,s,t,120,1108873,1110090,D,,,,Sub1
task,mainTask,2,D,165,37,1,1367,22122,1,2,parityInc,p,s,d,109,1112129,1113496,D,,,,Sub1
task,mainTask,2,D,166,38,1,1268,88888,8,8,congruent,m,s,t,122,1115457,1116725,D,,,,Sub1
task,mainTask,2,D,167,39,1,1211,77777,7,7,congruent,p,s,t,110,1118780,1119991,D,,,,Sub1
task,mainTask,2,D,168,40,1,844,33933,9,3,magnitudeInc,m,s,t,122,1121972,1122816,D,,,,Sub1
task,mainTask,2,D,169,41,1,952,88788,7,8,parityInc,p,s,t,110,1124680,1125632,D,,,,Sub1
task,mainTask,2,D,170,42,1,802,11111,1,1,congruent,p,r,t,110,1127564,1128366,D,,,,Sub1
task,mainTask,2,D,171,43,1,998,88888,8,8,congruent,m,s,d,122,1130241,1131239,D,,,,Sub1
task,mainTask,2,D,172,44,1,943,44344,3,4,parityInc,p,s,t,110,1133140,1134083,D,,,,Sub1
task,mainTask,2,D,173,45,1,816,33933,9,3,magnitudeInc,m,s,t,122,1135967,1136783,D,,,,Sub1
task,mainTask,2,D,174,46,1,1093,77677,6,7,parityInc,p,s,t,109,1138736,1139829,D,,,,Sub1
task,mainTask,2,D,175,47,0,1340,66466,4,6,magnitudeInc,m,s,t,122,1141716,1143056,D,,,,Sub1
task,mainTask,2,D,176,48,1,651,22222,2,2,congruent,p,s,t,109,1145051,1145702,D,,,,Sub1
task,mainTask,2,D,177,49,1,1021,44644,6,4,magnitudeInc,m,s,t,122,1147678,1148699,D,,,,Sub1
task,mainTask,2,D,178,50,1,651,88888,8,8,congruent,m,r,t,122,1150624,1151275,D,,,,Sub1
task,mainTask,2,D,179,51,1,821,11111,1,1,congruent,p,s,t,110,1153317,1154138,D,,,,Sub1
task,mainTask,2,D,180,52,0,820,44444,4,4,congruent,m,s,t,109,1156052,1156872,D,,,,Sub1
task,mainTask,2,D,181,53,0,917,33333,3,3,congruent,p,s,t,109,1158928,1159845,D,,,,Sub1
task,mainTask,2,D,182,54,1,755,99999,9,9,congruent,m,s,t,122,1161740,1162495,D,,,,Sub1
task,mainTask,2,D,183,55,1,1265,88788,7,8,parityInc,p,s,d,109,1164546,1165811,D,,,,Sub1
task,mainTask,2,D,184,56,1,1017,22222,2,2,congruent,p,r,t,109,1167643,1168660,D,,,,Sub1
task,mainTask,2,D,185,57,1,758,99999,9,9,congruent,m,s,t,122,1170476,1171234,D,,,,Sub1
task,mainTask,2,D,186,58,1,1340,88888,8,8,congruent,m,r,d,122,1173247,1174587,D,,,,Sub1
task,mainTask,2,D,187,59,0,1233,77777,7,7,congruent,m,r,t,120,1176647,1177880,D,,,,Sub1
task,mainTask,2,D,188,60,1,1075,33333,3,3,congruent,p,s,t,110,1179910,1180985,D,,,,Sub1
task,mainTask,2,D,189,61,1,1601,44444,4,4,congruent,m,s,t,120,1183021,1184622,D,,,,Sub1
task,mainTask,2,D,190,62,1,1240,66666,6,6,congruent,p,s,t,109,1186459,1187699,D,,,,Sub1
task,mainTask,2,D,191,63,1,900,22222,2,2,congruent,m,s,t,120,1189649,1190549,D,,,,Sub1
task,mainTask,2,D,192,64,1,830,11111,1,1,congruent,p,s,t,110,1192515,1193345,D,,,,Sub1
feedback,miniblock,2,D,,,,,,,,,,,,,,,,1194875,1218473,23598,Sub1
task,mainTask,2,D,193,65,1,1375,88888,8,8,congruent,p,n,t,109,1221987,1223362,D,,,,Sub1
task,mainTask,2,D,194,66,1,1091,44444,4,4,congruent,m,s,t,120,1225268,1226359,D,,,,Sub1
task,mainTask,2,D,195,67,1,1121,33333,3,3,congruent,p,s,t,110,1228391,1229512,D,,,,Sub1
task,mainTask,2,D,196,68,1,1066,11711,7,1,magnitudeInc,m,s,t,122,1231560,1232626,D,,,,Sub1
task,mainTask,2,D,197,69,1,757,33933,9,3,magnitudeInc,m,r,d,120,1234603,1235360,D,,,,Sub1
task,mainTask,2,D,198,70,1,897,77777,7,7,congruent,p,s,t,110,1237263,1238160,D,,,,Sub1
task,mainTask,2,D,199,71,1,1133,22222,2,2,congruent,m,s,t,120,1239965,1241098,D,,,,Sub1
task,mainTask,2,D,200,72,1,786,44444,4,4,congruent,m,r,t,120,1243056,1243842,D,,,,Sub1
task,mainTask,2,D,201,73,1,1077,99999,9,9,congruent,p,s,t,110,1245775,1246852,D,,,,Sub1
task,mainTask,2,D,202,74,1,800,11111,1,1,congruent,m,s,t,120,1248872,1249672,D,,,,Sub1
task,mainTask,2,D,203,75,1,1067,22222,2,2,congruent,m,r,t,120,1251505,1252572,D,,,,Sub1
task,mainTask,2,D,204,76,1,853,33333,3,3,congruent,p,s,t,110,1254461,1255314,D,,,,Sub1
task,mainTask,2,D,205,77,1,1018,11111,1,1,congruent,m,s,d,120,1257167,1258185,D,,,,Sub1
task,mainTask,2,D,206,78,1,1457,77677,6,7,parityInc,p,s,t,109,1260114,1261571,D,,,,Sub1
task,mainTask,2,D,207,79,1,905,88888,8,8,congruent,p,r,t,109,1263408,1264313,D,,,,Sub1
task,mainTask,2,D,208,80,1,853,66666,6,6,congruent,m,s,t,122,1266301,1267154,D,,,,Sub1
task,mainTask,2,D,209,81,1,1106,88888,8,8,congruent,p,s,t,109,1269113,1270219,D,,,,Sub1
task,mainTask,2,D,210,82,1,1057,99999,9,9,congruent,m,s,t,122,1272060,1273117,D,,,,Sub1
task,mainTask,2,D,211,83,1,905,11111,1,1,congruent,m,r,t,120,1275050,1275955,D,,,,Sub1
task,mainTask,2,D,212,84,1,1117,33333,3,3,congruent,p,s,t,110,1277773,1278890,D,,,,Sub1
task,mainTask,2,D,213,85,1,991,88788,7,8,parityInc,p,r,t,110,1280935,1281926,D,,,,Sub1
task,mainTask,2,D,214,86,1,892,11111,1,1,congruent,m,s,t,120,1283765,1284657,D,,,,Sub1
task,mainTask,2,D,215,87,1,1174,77777,7,7,congruent,p,s,t,110,1286555,1287729,D,,,,Sub1
task,mainTask,2,D,216,88,1,1147,22222,2,2,congruent,p,r,t,109,1289715,1290862,D,,,,Sub1
task,mainTask,2,D,217,89,1,859,99999,9,9,congruent,p,r,t,110,1292736,1293595,D,,,,Sub1
task,mainTask,2,D,218,90,1,574,33333,3,3,congruent,p,r,t,110,1295626,1296200,D,,,,Sub1
task,mainTask,2,D,219,91,0,721,66466,4,6,magnitudeInc,m,s,t,109,1298035,1298756,D,,,,Sub1
task,mainTask,2,D,220,92,1,923,66666,6,6,congruent,p,s,d,109,1300704,1301627,D,,,,Sub1
task,mainTask,2,D,221,93,1,1334,66466,4,6,magnitudeInc,m,s,t,120,1303535,1304869,D,,,,Sub1
task,mainTask,2,D,222,94,1,1056,66666,6,6,congruent,p,s,t,109,1306705,1307761,D,,,,Sub1
task,mainTask,2,D,223,95,1,1282,33233,2,3,parityInc,p,r,t,109,1309736,1311018,D,,,,Sub1
task,mainTask,2,D,224,96,1,546,88888,8,8,congruent,p,r,d,109,1313021,1313567,D,,,,Sub1
task,mainTask,2,D,225,97,1,1168,77777,7,7,congruent,m,s,t,122,1315405,1316573,D,,,,Sub1
task,mainTask,2,D,226,98,1,1095,11111,1,1,congruent,p,s,t,110,1318504,1319599,D,,,,Sub1
task,mainTask,2,D,227,99,1,852,99999,9,9,congruent,m,s,t,122,1321505,1322357,D,,,,Sub1
task,mainTask,2,D,228,100,1,1122,99399,3,9,magnitudeInc,m,r,t,120,1324470,1325592,D,,,,Sub1
task,mainTask,2,D,229,101,1,684,22222,2,2,congruent,p,s,d,109,1327538,1328222,D,,,,Sub1
task,mainTask,2,D,230,102,1,943,11111,1,1,congruent,m,s,t,120,1330087,1331030,D,,,,Sub1
task,mainTask,2,D,231,103,1,751,44444,4,4,congruent,p,s,t,109,1332992,1333743,D,,,,Sub1
task,mainTask,2,D,232,104,1,1392,99399,3,9,magnitudeInc,m,s,d,122,1335597,1336989,D,,,,Sub1
task,mainTask,2,D,233,105,1,1022,88888,8,8,congruent,p,s,t,109,1338995,1340017,D,,,,Sub1
task,mainTask,2,D,234,106,1,1536,44644,6,4,magnitudeInc,m,s,t,122,1341956,1343492,D,,,,Sub1
task,mainTask,2,D,235,107,1,910,77777,7,7,congruent,p,s,t,110,1345447,1346357,D,,,,Sub1
task,mainTask,2,D,236,108,1,1525,66666,6,6,congruent,p,r,t,109,1348317,1349842,D,,,,Sub1
task,mainTask,2,D,237,109,1,793,11411,4,1,parityInc,p,r,t,109,1351829,1352622,D,,,,Sub1
task,mainTask,2,D,238,110,1,1127,88288,2,8,magnitudeInc,m,s,t,120,1354485,1355612,D,,,,Sub1
task,mainTask,2,D,239,111,0,1117,88888,8,8,congruent,p,s,t,110,1357558,1358675,D,,,,Sub1
task,mainTask,2,D,240,112,1,959,99999,9,9,congruent,m,s,t,122,1360532,1361491,D,,,,Sub1
task,mainTask,2,D,241,113,1,1180,44444,4,4,congruent,m,r,t,120,1363541,1364721,D,,,,Sub1
task,mainTask,2,D,242,114,1,718,88888,8,8,congruent,m,r,t,122,1366697,1367415,D,,,,Sub1
task,mainTask,2,D,243,115,1,901,33333,3,3,congruent,p,s,t,110,1369328,1370229,D,,,,Sub1
task,mainTask,2,D,244,116,1,1145,44444,4,4,congruent,m,s,t,120,1372266,1373411,D,,,,Sub1
task,mainTask,2,D,245,117,0,1429,66966,9,6,parityInc,p,s,t,109,1375348,1376777,D,,,,Sub1
task,mainTask,2,D,246,118,1,725,22222,2,2,congruent,m,s,t,120,1378726,1379451,D,,,,Sub1
task,mainTask,2,D,247,119,1,829,77777,7,7,congruent,p,s,t,110,1381540,1382369,D,,,,Sub1
task,mainTask,2,D,248,120,1,960,11111,1,1,congruent,m,s,d,120,1384370,1385330,D,,,,Sub1
task,mainTask,2,D,249,121,1,816,33933,9,3,magnitudeInc,m,r,t,122,1387162,1387978,D,,,,Sub1
task,mainTask,2,D,250,122,1,976,77777,7,7,congruent,p,s,t,110,1389994,1390970,D,,,,Sub1
task,mainTask,2,D,251,123,0,726,11111,1,1,congruent,m,s,t,110,1392803,1393529,D,,,,Sub1
task,mainTask,2,D,252,124,1,1254,66666,6,6,congruent,m,r,t,122,1395489,1396743,D,,,,Sub1
task,mainTask,2,D,253,125,1,912,33333,3,3,congruent,m,r,t,120,1398654,1399566,D,,,,Sub1
task,mainTask,2,D,254,126,1,1547,77677,6,7,parityInc,p,s,t,109,1401511,1403058,D,,,,Sub1
task,mainTask,2,D,255,127,1,928,22222,2,2,congruent,m,s,d,120,1405031,1405959,D,,,,Sub1
task,mainTask,2,D,256,128,0,926,88888,8,8,congruent,p,s,t,110,1407970,1408896,D,,,,Sub1
feedback,bigBlock,3,B,,,,,,,,,,,,,,,,1410375,1435124,24749,Sub1
task,mainTask,3,B,257,1,1,1290,44644,6,4,magnitudeInc,m,n,t,122,1438645,1439935,B,,,,Sub1
task,mainTask,3,B,258,2,1,988,77877,8,7,parityInc,p,s,t,109,1441968,1442956,B,,,,Sub1
task,mainTask,3,B,259,3,1,1168,66666,6,6,congruent,m,s,t,122,1444809,1445977,B,,,,Sub1
task,mainTask,3,B,260,4,1,1252,11411,4,1,parityInc,p,s,t,109,1447832,1449084,B,,,,Sub1
task,mainTask,3,B,261,5,1,1235,11711,7,1,magnitudeInc,m,s,t,122,1451011,1452246,B,,,,Sub1
task,mainTask,3,B,262,6,1,1220,22122,1,2,parityInc,p,s,d,109,1454239,1455459,B,,,,Sub1
task,mainTask,3,B,263,7,1,656,99999,9,9,congruent,m,s,t,122,1457277,1457933,B,,,,Sub1
task,mainTask,3,B,264,8,1,958,22222,2,2,congruent,p,s,t,109,1459958,1460916,B,,,,Sub1
task,mainTask,3,B,265,9,1,837,33933,9,3,magnitudeInc,m,s,t,122,1462803,1463640,B,,,,Sub1
task,mainTask,3,B,266,10,1,1751,44344,3,4,parityInc,p,s,d,109,1465540,1467291,B,,,,Sub1
task,mainTask,3,B,267,11,1,1035,22122,1,2,parityInc,p,r,t,110,1469204,1470239,B,,,,Sub1
task,mainTask,3,B,268,12,1,1047,11711,7,1,magnitudeInc,m,s,t,122,1472088,1473135,B,,,,Sub1
task,mainTask,3,B,269,13,1,985,77877,8,7,parityInc,p,s,t,109,1475029,1476014,B,,,,Sub1
task,mainTask,3,B,270,14,1,1393,99399,3,9,magnitudeInc,m,s,t,120,1477974,1479367,B,,,,Sub1
task,mainTask,3,B,271,15,1,1104,33233,2,3,parityInc,p,s,t,109,1481214,1482318,B,,,,Sub1
task,mainTask,3,B,272,16,1,904,11411,4,1,parityInc,p,r,t,109,1484321,1485225,B,,,,Sub1
task,mainTask,3,B,273,17,1,1439,44844,8,4,magnitudeInc,m,s,t,122,1487021,1488460,B,,,,Sub1
task,mainTask,3,B,274,18,1,1353,22122,1,2,parityInc,p,s,t,110,1490399,1491752,B,,,,Sub1
task,mainTask,3,B,275,19,1,994,44644,6,4,magnitudeInc,m,s,t,122,1493677,1494671,B,,,,Sub1
task,mainTask,3,B,276,20,1,882,66466,4,6,magnitudeInc,m,r,d,122,1496524,1497406,B,,,,Sub1
task,mainTask,3,B,277,21,0,986,88788,7,8,parityInc,p,s,t,109,1499475,1500461,B,,,,Sub1
task,mainTask,3,B,278,22,1,1220,66466,4,6,magnitudeInc,m,s,t,120,1502304,1503524,B,,,,Sub1
task,mainTask,3,B,279,23,1,727,33933,9,3,magnitudeInc,m,r,t,122,1505559,1506286,B,,,,Sub1
task,mainTask,3,B,280,24,1,1128,88288,2,8,magnitudeInc,m,r,t,120,1508283,1509411,B,,,,Sub1
task,mainTask,3,B,281,25,1,1231,33333,3,3,congruent,p,s,t,110,1511429,1512660,B,,,,Sub1
task,mainTask,3,B,282,26,1,1316,44644,6,4,magnitudeInc,m,s,d,120,1514658,1515974,B,,,,Sub1
task,mainTask,3,B,283,27,1,814,88788,7,8,parityInc,p,s,t,110,1517944,1518758,B,,,,Sub1
task,mainTask,3,B,284,28,0,672,77177,1,7,magnitudeInc,m,s,t,110,1520620,1521292,B,,,,Sub1
task,mainTask,3,B,285,29,1,658,33333,3,3,congruent,p,s,t,110,1523119,1523777,B,,,,Sub1
task,mainTask,3,B,286,30,1,825,33933,9,3,magnitudeInc,m,s,t,122,1525599,1526424,B,,,,Sub1
task,mainTask,3,B,287,31,1,1176,77877,8,7,parityInc,p,s,t,109,1528273,1529449,B,,,,Sub1
task,mainTask,3,B,288,32,1,905,22222,2,2,congruent,m,s,t,120,1531254,1532159,B,,,,Sub1
task,mainTask,3,B,289,33,1,1280,77877,8,7,parityInc,p,s,t,109,1534029,1535309,B,,,,Sub1
task,mainTask,3,B,290,34,1,1233,77677,6,7,parityInc,p,r,t,109,1537338,1538571,B,,,,Sub1
task,mainTask,3,B,291,35,1,895,11711,7,1,magnitudeInc,m,s,t,122,1540494,1541389,B,,,,Sub1
task,mainTask,3,B,292,36,1,1022,22122,1,2,parityInc,p,s,t,110,1543443,1544465,B,,,,Sub1
task,mainTask,3,B,293,37,1,961,33333,3,3,congruent,m,s,d,120,1546452,1547413,B,,,,Sub1
task,mainTask,3,B,294,38,1,924,44844,8,4,magnitudeInc,m,r,t,122,1549319,1550243,B,,,,Sub1
task,mainTask,3,B,295,39,1,1066,33233,2,3,parityInc,p,s,d,110,1552096,1553162,B,,,,Sub1
task,mainTask,3,B,296,40,1,951,33933,9,3,magnitudeInc,m,s,t,122,1555096,1556047,B,,,,Sub1
task,mainTask,3,B,297,41,1,1106,33333,3,3,congruent,m,r,t,120,1558011,1559117,B,,,,Sub1
task,mainTask,3,B,298,42,1,897,88788,7,8,parityInc,p,s,t,110,1560977,1561874,B,,,,Sub1
task,mainTask,3,B,299,43,1,1044,66466,4,6,magnitudeInc,m,s,t,120,1563713,1564757,B,,,,Sub1
task,mainTask,3,B,300,44,0,762,66966,9,6,parityInc,p,s,t,122,1566603,1567365,B,,,,Sub1
task,mainTask,3,B,301,45,1,703,44444,4,4,congruent,m,s,t,120,1569310,1570013,B,,,,Sub1
task,mainTask,3,B,302,46,1,1112,44644,6,4,magnitudeInc,m,r,t,122,1572060,1573172,B,,,,Sub1
task,mainTask,3,B,303,47,1,1212,33233,2,3,parityInc,p,s,t,109,1575252,1576464,B,,,,Sub1
task,mainTask,3,B,304,48,1,724,22122,1,2,parityInc,p,r,t,110,1578383,1579107,B,,,,Sub1
task,mainTask,3,B,305,49,1,1003,11711,7,1,magnitudeInc,m,s,t,122,1581125,1582128,B,,,,Sub1
task,mainTask,3,B,306,50,1,2000,99399,3,9,magnitudeInc,m,r,t,120,1584064,1586064,B,,,,Sub1
task,mainTask,3,B,307,51,1,682,88788,7,8,parityInc,p,s,d,109,1587876,1588558,B,,,,Sub1
task,mainTask,3,B,308,52,1,892,44444,4,4,congruent,m,s,t,120,1590487,1591379,B,,,,Sub1
task,mainTask,3,B,309,53,1,1010,77877,8,7,parityInc,p,s,t,109,1593330,1594340,B,,,,Sub1
task,mainTask,3,B,310,54,0,1271,99999,9,9,congruent,m,s,t,110,1596175,1597446,B,,,,Sub1
task,mainTask,3,B,311,55,1,1099,77677,6,7,parityInc,p,s,t,109,1599351,1600450,B,,,,Sub1
task,mainTask,3,B,312,56,1,1200,11111,1,1,congruent,m,s,t,120,1602425,1603625,B,,,,Sub1
task,mainTask,3,B,313,57,1,1060,33233,2,3,parityInc,p,s,t,109,1605690,1606750,B,,,,Sub1
task,mainTask,3,B,314,58,1,926,77177,1,7,magnitudeInc,m,s,t,120,1608592,1609518,B,,,,Sub1
task,mainTask,3,B,315,59,1,1099,11411,4,1,parityInc,p,s,t,109,1611600,1612699,B,,,,Sub1
task,mainTask,3,B,316,60,0,753,88888,8,8,congruent,m,s,t,109,1614616,1615369,B,,,,Sub1
task,mainTask,3,B,317,61,1,806,22222,2,2,congruent,p,s,d,109,1617264,1618070,B,,,,Sub1
task,mainTask,3,B,318,62,0,1233,33933,9,3,magnitudeInc,m,s,t,110,1619951,1621184,B,,,,Sub1
task,mainTask,3,B,319,63,1,1460,66666,6,6,congruent,m,r,t,122,1623013,1624473,B,,,,Sub1
task,mainTask,3,B,320,64,1,926,99399,3,9,magnitudeInc,m,r,t,120,1626471,1627397,B,,,,Sub1
feedback,miniblock,3,B,,,,,,,,,,,,,,,,1628832,1744100,115268,Sub1
task,mainTask,3,B,321,65,1,1038,77777,7,7,congruent,m,n,t,122,1747620,1748658,B,,,,Sub1
task,mainTask,3,B,322,66,1,1319,33233,2,3,parityInc,p,s,t,109,1750674,1751993,B,,,,Sub1
task,mainTask,3,B,323,67,1,999,66966,9,6,parityInc,p,r,d,109,1753959,1754958,B,,,,Sub1
task,mainTask,3,B,324,68,1,880,77177,1,7,magnitudeInc,m,s,t,120,1756867,1757747,B,,,,Sub1
task,mainTask,3,B,325,69,1,1054,88888,8,8,congruent,p,s,t,109,1759804,1760858,B,,,,Sub1
task,mainTask,3,B,326,70,1,1024,99399,3,9,magnitudeInc,m,s,t,120,1762771,1763795,B,,,,Sub1
task,mainTask,3,B,327,71,1,1713,44444,4,4,congruent,p,s,t,109,1765709,1767422,B,,,,Sub1
task,mainTask,3,B,328,72,1,604,33233,2,3,parityInc,p,r,t,109,1769457,1770061,B,,,,Sub1
task,mainTask,3,B,329,73,0,1091,66666,6,6,congruent,m,s,t,120,1771886,1772977,B,,,,Sub1
task,mainTask,3,B,330,74,1,1521,44444,4,4,congruent,p,s,t,109,1774913,1776434,B,,,,Sub1
task,mainTask,3,B,331,75,1,1025,44644,6,4,magnitudeInc,m,s,t,122,1778262,1779287,B,,,,Sub1
task,mainTask,3,B,332,76,1,846,99999,9,9,congruent,p,s,t,110,1781266,1782112,B,,,,Sub1
task,mainTask,3,B,333,77,1,985,44844,8,4,magnitudeInc,m,s,t,122,1783938,1784923,B,,,,Sub1
task,mainTask,3,B,334,78,1,1055,88788,7,8,parityInc,p,s,t,110,1786747,1787802,B,,,,Sub1
task,mainTask,3,B,335,79,1,980,77177,1,7,magnitudeInc,m,s,d,122,1789611,1790591,B,,,,Sub1
task,mainTask,3,B,336,80,1,1092,44344,3,4,parityInc,p,s,t,110,1792406,1793498,B,,,,Sub1
task,mainTask,3,B,337,81,0,,33933,9,3,magnitudeInc,m,s,t,,1795393,,B,,,,Sub1
task,mainTask,3,B,338,82,1,1050,77877,8,7,parityInc,p,s,t,109,1799208,1800258,B,,,,Sub1
task,mainTask,3,B,339,83,0,839,77177,1,7,magnitudeInc,m,s,t,110,1802247,1803086,B,,,,Sub1
task,mainTask,3,B,340,84,1,787,11411,4,1,parityInc,p,s,d,110,1804937,1805724,B,,,,Sub1
task,mainTask,3,B,341,85,1,676,44344,3,4,parityInc,p,r,t,110,1807579,1808255,B,,,,Sub1
task,mainTask,3,B,342,86,1,810,77177,1,7,magnitudeInc,m,s,t,120,1810301,1811111,B,,,,Sub1
task,mainTask,3,B,343,87,1,1332,11711,7,1,magnitudeInc,m,r,t,122,1813143,1814475,B,,,,Sub1
task,mainTask,3,B,344,88,1,712,33933,9,3,magnitudeInc,m,r,d,120,1816533,1817245,B,,,,Sub1
task,mainTask,3,B,345,89,1,721,11411,4,1,parityInc,p,s,t,109,1819185,1819906,B,,,,Sub1
task,mainTask,3,B,346,90,1,1110,88288,2,8,magnitudeInc,m,s,t,120,1821783,1822893,B,,,,Sub1
task,mainTask,3,B,347,91,1,935,77677,6,7,parityInc,p,s,t,109,1824775,1825710,B,,,,Sub1
task,mainTask,3,B,348,92,0,1107,99399,3,9,magnitudeInc,m,s,t,109,1827750,1828857,B,,,,Sub1
task,mainTask,3,B,349,93,1,914,77677,6,7,parityInc,p,s,t,109,1830784,1831698,B,,,,Sub1
task,mainTask,3,B,350,94,1,1163,77877,8,7,parityInc,p,r,t,109,1833726,1834889,B,,,,Sub1
task,mainTask,3,B,351,95,1,1004,11711,7,1,magnitudeInc,m,s,t,122,1836865,1837869,B,,,,Sub1
task,mainTask,3,B,352,96,0,,33233,2,3,parityInc,p,s,t,,1839757,,B,,,,Sub1
task,mainTask,3,B,353,97,1,881,33933,9,3,magnitudeInc,m,s,t,122,1843672,1844553,B,,,,Sub1
task,mainTask,3,B,354,98,0,1951,11711,7,1,magnitudeInc,m,r,t,110,1846580,1848531,B,,,,Sub1
task,mainTask,3,B,355,99,1,659,66666,6,6,congruent,p,s,t,109,1850342,1851001,B,,,,Sub1
task,mainTask,3,B,356,100,1,594,22222,2,2,congruent,p,r,t,109,1852862,1853456,B,,,,Sub1
task,mainTask,3,B,357,101,1,795,77877,8,7,parityInc,p,r,d,110,1855297,1856092,B,,,,Sub1
task,mainTask,3,B,358,102,1,897,33933,9,3,magnitudeInc,m,s,t,122,1858090,1858987,B,,,,Sub1
task,mainTask,3,B,359,103,1,919,99399,3,9,magnitudeInc,m,r,t,120,1860987,1861906,B,,,,Sub1
task,mainTask,3,B,360,104,1,1014,66666,6,6,congruent,p,s,t,109,1863783,1864797,B,,,,Sub1
task,mainTask,3,B,361,105,1,619,33333,3,3,congruent,m,s,t,120,1866680,1867299,B,,,,Sub1
task,mainTask,3,B,362,106,1,873,11411,4,1,parityInc,p,s,t,109,1869392,1870265,B,,,,Sub1
task,mainTask,3,B,363,107,1,722,22122,1,2,parityInc,p,r,t,110,1872094,1872816,B,,,,Sub1
task,mainTask,3,B,364,108,0,704,77777,7,7,congruent,m,s,t,120,1874692,1875396,B,,,,Sub1
task,mainTask,3,B,365,109,0,903,11111,1,1,congruent,p,s,t,109,1877369,1878272,B,,,,Sub1
task,mainTask,3,B,366,110,1,829,44844,8,4,magnitudeInc,m,s,d,120,1880181,1881010,B,,,,Sub1
task,mainTask,3,B,367,111,1,616,88288,2,8,magnitudeInc,m,r,t,120,1882989,1883605,B,,,,Sub1
task,mainTask,3,B,368,112,1,990,44444,4,4,congruent,p,s,t,109,1885602,1886592,B,,,,Sub1
task,mainTask,3,B,369,113,1,802,33933,9,3,magnitudeInc,m,s,t,122,1888397,1889199,B,,,,Sub1
task,mainTask,3,B,370,114,0,627,44344,3,4,parityInc,p,s,t,120,1891256,1891883,B,,,,Sub1
task,mainTask,3,B,371,115,1,645,33233,2,3,parityInc,p,r,t,109,1893795,1894440,B,,,,Sub1
task,mainTask,3,B,372,116,1,869,66666,6,6,congruent,m,s,t,122,1896263,1897132,B,,,,Sub1
task,mainTask,3,B,373,117,1,1131,77877,8,7,parityInc,p,s,t,109,1899121,1900252,B,,,,Sub1
task,mainTask,3,B,374,118,1,844,88288,2,8,magnitudeInc,m,s,t,120,1902214,1903058,B,,,,Sub1
task,mainTask,3,B,375,119,1,881,99399,3,9,magnitudeInc,m,r,t,120,1905028,1905909,B,,,,Sub1
task,mainTask,3,B,376,120,1,1032,77777,7,7,congruent,p,s,t,110,1907907,1908939,B,,,,Sub1
task,mainTask,3,B,377,121,0,1082,33933,9,3,magnitudeInc,m,s,t,120,1910748,1911830,B,,,,Sub1
task,mainTask,3,B,378,122,1,1297,11411,4,1,parityInc,p,s,t,109,1913775,1915072,B,,,,Sub1
task,mainTask,3,B,379,123,1,619,22122,1,2,parityInc,p,r,t,110,1917036,1917655,B,,,,Sub1
task,mainTask,3,B,380,124,1,914,66666,6,6,congruent,p,r,d,109,1919482,1920396,B,,,,Sub1
task,mainTask,3,B,381,125,1,715,77877,8,7,parityInc,p,r,t,109,1922267,1922982,B,,,,Sub1
task,mainTask,3,B,382,126,0,1268,77777,7,7,congruent,m,s,d,110,1924844,1926112,B,,,,Sub1
task,mainTask,3,B,383,127,1,602,11411,4,1,parityInc,p,s,t,109,1928140,1928742,B,,,,Sub1
task,mainTask,3,B,384,128,1,856,22122,1,2,parityInc,p,r,t,110,1930697,1931553,B,,,,Sub1
feedback,bigBlock,4,A,,,,,,,,,,,,,,,,1932862,2134008,201146,Sub1
task,mainTask,4,A,385,1,1,1243,99399,3,9,magnitudeInc,m,n,t,120,2137525,2138768,A,,,,Sub1
task,mainTask,4,A,386,2,1,948,44444,4,4,congruent,m,r,t,120,2140725,2141673,A,,,,Sub1
task,mainTask,4,A,387,3,1,804,77877,8,7,parityInc,p,s,t,109,2143610,2144414,A,,,,Sub1
task,mainTask,4,A,388,4,1,873,99999,9,9,congruent,m,s,t,122,2146317,2147190,A,,,,Sub1
task,mainTask,4,A,389,5,1,623,44644,6,4,magnitudeInc,m,r,t,122,2149091,2149714,A,,,,Sub1
task,mainTask,4,A,390,6,0,1101,77777,7,7,congruent,m,r,t,120,2151657,2152758,A,,,,Sub1
task,mainTask,4,A,391,7,1,531,66666,6,6,congruent,m,r,t,122,2154677,2155208,A,,,,Sub1
task,mainTask,4,A,392,8,1,681,33233,2,3,parityInc,p,s,t,109,2157121,2157802,A,,,,Sub1
task,mainTask,4,A,393,9,1,527,88888,8,8,congruent,p,r,t,109,2159769,2160296,A,,,,Sub1
task,mainTask,4,A,394,10,1,543,11411,4,1,parityInc,p,r,t,109,2162121,2162664,A,,,,Sub1
task,mainTask,4,A,395,11,0,894,22222,2,2,congruent,m,s,d,122,2164483,2165377,A,,,,Sub1
task,mainTask,4,A,396,12,1,878,77177,1,7,magnitudeInc,m,r,t,120,2167350,2168228,A,,,,Sub1
task,mainTask,4,A,397,13,1,1083,66966,9,6,parityInc,p,s,t,110,2170232,2171315,A,,,,Sub1
task,mainTask,4,A,398,14,1,629,88788,7,8,parityInc,p,r,d,109,2173257,2173886,A,,,,Sub1
task,mainTask,4,A,399,15,1,1199,77177,1,7,magnitudeInc,m,s,t,120,2175915,2177114,A,,,,Sub1
task,mainTask,4,A,400,16,1,591,99399,3,9,magnitudeInc,m,r,t,120,2179180,2179771,A,,,,Sub1
task,mainTask,4,A,401,17,1,701,22222,2,2,congruent,m,r,t,120,2181740,2182441,A,,,,Sub1
task,mainTask,4,A,402,18,1,1033,44844,8,4,magnitudeInc,m,r,t,122,2184352,2185385,A,,,,Sub1
task,mainTask,4,A,403,19,1,1303,11711,7,1,magnitudeInc,m,r,t,122,2187340,2188643,A,,,,Sub1
task,mainTask,4,A,404,20,1,1334,77677,6,7,parityInc,p,s,t,109,2190570,2191904,A,,,,Sub1
task,mainTask,4,A,405,21,1,1067,22122,1,2,parityInc,p,r,t,110,2193826,2194893,A,,,,Sub1
task,mainTask,4,A,406,22,1,695,11411,4,1,parityInc,p,r,t,109,2196914,2197609,A,,,,Sub1
task,mainTask,4,A,407,23,1,1596,88788,7,8,parityInc,p,r,t,110,2199597,2201193,A,,,,Sub1
task,mainTask,4,A,408,24,1,973,77677,6,7,parityInc,p,r,t,109,2203073,2204046,A,,,,Sub1
task,mainTask,4,A,409,25,1,630,44444,4,4,congruent,p,r,t,109,2205922,2206552,A,,,,Sub1
task,mainTask,4,A,410,26,1,894,77877,8,7,parityInc,p,r,t,109,2208421,2209315,A,,,,Sub1
task,mainTask,4,A,411,27,1,754,66966,9,6,parityInc,p,r,t,110,2211185,2211939,A,,,,Sub1
task,mainTask,4,A,412,28,1,716,44344,3,4,parityInc,p,r,d,109,2213797,2214513,A,,,,Sub1
task,mainTask,4,A,413,29,0,649,77177,1,7,magnitudeInc,m,s,t,110,2216430,2217079,A,,,,Sub1
task,mainTask,4,A,414,30,1,464,33933,9,3,magnitudeInc,m,r,t,122,2219061,2219525,A,,,,Sub1
task,mainTask,4,A,415,31,1,762,33333,3,3,congruent,m,r,t,120,2221496,2222258,A,,,,Sub1
task,mainTask,4,A,416,32,0,914,33233,2,3,parityInc,p,s,d,109,2224216,2225130,A,,,,Sub1
task,mainTask,4,A,417,33,1,725,66466,4,6,magnitudeInc,m,s,t,120,2226944,2227669,A,,,,Sub1
task,mainTask,4,A,418,34,0,813,77177,1,7,magnitudeInc,m,r,t,110,2229639,2230452,A,,,,Sub1
task,mainTask,4,A,419,35,1,638,88288,2,8,magnitudeInc,m,r,t,120,2232302,2232940,A,,,,Sub1
task,mainTask,4,A,420,36,1,1618,11711,7,1,magnitudeInc,m,r,t,122,2234800,2236418,A,,,,Sub1
task,mainTask,4,A,421,37,1,634,88288,2,8,magnitudeInc,m,r,t,120,2238466,2239100,A,,,,Sub1
task,mainTask,4,A,422,38,1,662,77877,8,7,parityInc,p,s,t,109,2241190,2241852,A,,,,Sub1
task,mainTask,4,A,423,39,1,931,44344,3,4,parityInc,p,r,t,110,2243828,2244759,A,,,,Sub1
task,mainTask,4,A,424,40,0,1301,11411,4,1,parityInc,p,r,t,110,2246783,2248084,A,,,,Sub1
task,mainTask,4,A,425,41,1,999,99999,9,9,congruent,p,r,d,110,2250070,2251069,A,,,,Sub1
task,mainTask,4,A,426,42,1,1194,44844,8,4,magnitudeInc,m,s,t,122,2253046,2254240,A,,,,Sub1
task,mainTask,4,A,427,43,1,636,44644,6,4,magnitudeInc,m,r,t,122,2256157,2256793,A,,,,Sub1
task,mainTask,4,A,428,44,1,647,44344,3,4,parityInc,p,s,t,110,2258721,2259368,A,,,,Sub1
task,mainTask,4,A,429,45,1,532,22122,1,2,parityInc,p,r,t,110,2261223,2261755,A,,,,Sub1
task,mainTask,4,A,430,46,1,716,99999,9,9,congruent,m,s,t,122,2263810,2264526,A,,,,Sub1
task,mainTask,4,A,431,47,1,622,77777,7,7,congruent,m,r,t,122,2266554,2267176,A,,,,Sub1
task,mainTask,4,A,432,48,1,608,44644,6,4,magnitudeInc,m,r,d,120,2269124,2269732,A,,,,Sub1
task,mainTask,4,A,433,49,1,579,33933,9,3,magnitudeInc,m,r,t,122,2271635,2272214,A,,,,Sub1
task,mainTask,4,A,434,50,1,604,88888,8,8,congruent,m,r,t,122,2274170,2274774,A,,,,Sub1
task,mainTask,4,A,435,51,1,502,44644,6,4,magnitudeInc,m,r,t,122,2276855,2277357,A,,,,Sub1
task,mainTask,4,A,436,52,1,659,11711,7,1,magnitudeInc,m,r,t,122,2279256,2279915,A,,,,Sub1
task,mainTask,4,A,437,53,1,738,22122,1,2,parityInc,p,s,t,110,2281987,2282725,A,,,,Sub1
task,mainTask,4,A,438,54,1,584,77677,6,7,parityInc,p,r,t,109,2284771,2285355,A,,,,Sub1
task,mainTask,4,A,439,55,1,519,33233,2,3,parityInc,p,r,t,109,2287210,2287729,A,,,,Sub1
task,mainTask,4,A,440,56,1,580,44344,3,4,parityInc,p,r,t,110,2289621,2290201,A,,,,Sub1
task,mainTask,4,A,441,57,1,688,66966,9,6,parityInc,p,r,d,109,2292087,2292775,A,,,,Sub1
task,mainTask,4,A,442,58,1,614,11411,4,1,parityInc,p,r,t,109,2294680,2295294,A,,,,Sub1
task,mainTask,4,A,443,59,1,480,33233,2,3,parityInc,p,r,t,109,2297215,2297695,A,,,,Sub1
task,mainTask,4,A,444,60,1,507,88788,7,8,parityInc,p,r,d,109,2299671,2300178,A,,,,Sub1
task,mainTask,4,A,445,61,1,656,44444,4,4,congruent,p,r,t,109,2302213,2302869,A,,,,Sub1
task,mainTask,4,A,446,62,1,522,22122,1,2,parityInc,p,r,t,110,2304799,2305321,A,,,,Sub1
task,mainTask,4,A,447,63,0,400,44844,8,4,magnitudeInc,m,s,t,109,2307185,2307585,A,,,,Sub1
task,mainTask,4,A,448,64,0,550,44344,3,4,parityInc,p,s,t,109,2309582,2310132,A,,,,Sub1
feedback,miniblock,4,A,,,,,,,,,,,,,,,,2311594,2696341,384747,Sub1
task,mainTask,4,A,449,65,1,1595,88788,7,8,parityInc,p,n,t,110,2699867,2701462,A,,,,Sub1
task,mainTask,4,A,450,66,0,1484,44844,8,4,magnitudeInc,m,s,t,120,2703361,2704845,A,,,,Sub1
task,mainTask,4,A,451,67,1,1854,88288,2,8,magnitudeInc,m,r,t,120,2706754,2708608,A,,,,Sub1
task,mainTask,4,A,452,68,1,1205,77177,1,7,magnitudeInc,m,r,d,122,2710483,2711688,A,,,,Sub1
task,mainTask,4,A,453,69,1,721,88288,2,8,magnitudeInc,m,r,t,120,2713513,2714234,A,,,,Sub1
task,mainTask,4,A,454,70,1,492,33933,9,3,magnitudeInc,m,r,t,122,2716269,2716761,A,,,,Sub1
task,mainTask,4,A,455,71,1,632,44844,8,4,magnitudeInc,m,r,t,122,2718644,2719276,A,,,,Sub1
task,mainTask,4,A,456,72,1,621,99399,3,9,magnitudeInc,m,r,t,120,2721127,2721748,A,,,,Sub1
task,mainTask,4,A,457,73,1,1010,44444,4,4,congruent,m,r,t,120,2723812,2724822,A,,,,Sub1
task,mainTask,4,A,458,74,1,699,11711,7,1,magnitudeInc,m,r,t,122,2726663,2727362,A,,,,Sub1
task,mainTask,4,A,459,75,1,827,66966,9,6,parityInc,p,s,t,110,2729284,2730111,A,,,,Sub1
task,mainTask,4,A,460,76,1,1253,77677,6,7,parityInc,p,r,t,109,2731918,2733171,A,,,,Sub1
task,mainTask,4,A,461,77,1,751,22122,1,2,parityInc,p,r,d,109,2735155,2735906,A,,,,Sub1
task,mainTask,4,A,462,78,1,729,11411,4,1,parityInc,p,r,t,109,2737883,2738612,A,,,,Sub1
task,mainTask,4,A,463,79,1,642,44344,3,4,parityInc,p,r,t,110,2740577,2741219,A,,,,Sub1
task,mainTask,4,A,464,80,1,595,77677,6,7,parityInc,p,r,t,109,2743180,2743775,A,,,,Sub1
task,mainTask,4,A,465,81,1,578,44344,3,4,parityInc,p,r,t,110,2745650,2746228,A,,,,Sub1
task,mainTask,4,A,466,82,1,704,88788,7,8,parityInc,p,r,t,110,2748118,2748822,A,,,,Sub1
task,mainTask,4,A,467,83,1,542,77877,8,7,parityInc,p,r,t,109,2750697,2751239,A,,,,Sub1
task,mainTask,4,A,468,84,1,552,22222,2,2,congruent,p,r,t,109,2753185,2753737,A,,,,Sub1
task,mainTask,4,A,469,85,1,659,11111,1,1,congruent,p,r,t,110,2755795,2756454,A,,,,Sub1
task,mainTask,4,A,470,86,1,774,66666,6,6,congruent,p,r,d,109,2758421,2759195,A,,,,Sub1
task,mainTask,4,A,471,87,1,588,33233,2,3,parityInc,p,r,t,109,2761128,2761716,A,,,,Sub1
task,mainTask,4,A,472,88,1,511,88888,8,8,congruent,p,r,t,109,2763520,2764031,A,,,,Sub1
task,mainTask,4,A,473,89,1,522,44444,4,4,congruent,p,r,d,109,2765926,2766448,A,,,,Sub1
task,mainTask,4,A,474,90,1,858,99399,3,9,magnitudeInc,m,s,t,120,2768267,2769125,A,,,,Sub1
task,mainTask,4,A,475,91,1,872,77777,7,7,congruent,p,s,t,110,2771116,2771988,A,,,,Sub1
task,mainTask,4,A,476,92,1,1005,99999,9,9,congruent,p,r,t,110,2773932,2774937,A,,,,Sub1
task,mainTask,4,A,477,93,1,643,77177,1,7,magnitudeInc,m,s,t,120,2776750,2777393,A,,,,Sub1
task,mainTask,4,A,478,94,1,608,66466,4,6,magnitudeInc,m,r,t,120,2779254,2779862,A,,,,Sub1
task,mainTask,4,A,479,95,1,968,99999,9,9,congruent,m,r,t,122,2781898,2782866,A,,,,Sub1
task,mainTask,4,A,480,96,1,769,44644,6,4,magnitudeInc,m,r,t,122,2784862,2785631,A,,,,Sub1
task,mainTask,4,A,481,97,1,487,88888,8,8,congruent,m,r,t,122,2787668,2788155,A,,,,Sub1
task,mainTask,4,A,482,98,1,899,77777,7,7,congruent,m,r,t,122,2790164,2791063,A,,,,Sub1
task,mainTask,4,A,483,99,1,665,22222,2,2,congruent,m,r,t,120,2793040,2793705,A,,,,Sub1
task,mainTask,4,A,484,100,1,527,77777,7,7,congruent,m,r,d,122,2795680,2796207,A,,,,Sub1
task,mainTask,4,A,485,101,1,714,77677,6,7,parityInc,p,s,t,109,2798113,2798827,A,,,,Sub1
task,mainTask,4,A,486,102,1,556,33233,2,3,parityInc,p,r,t,109,2800653,2801209,A,,,,Sub1
task,mainTask,4,A,487,103,1,644,33333,3,3,congruent,m,s,t,120,2803027,2803671,A,,,,Sub1
task,mainTask,4,A,488,104,1,639,77877,8,7,parityInc,p,s,t,109,2805572,2806211,A,,,,Sub1
task,mainTask,4,A,489,105,1,564,11111,1,1,congruent,p,r,d,110,2808047,2808611,A,,,,Sub1
task,mainTask,4,A,490,106,1,968,66466,4,6,magnitudeInc,m,s,t,120,2810526,2811494,A,,,,Sub1
task,mainTask,4,A,491,107,0,715,44644,6,4,magnitudeInc,m,r,t,120,2813504,2814219,A,,,,Sub1
task,mainTask,4,A,492,108,1,499,33333,3,3,congruent,m,r,t,120,2816052,2816551,A,,,,Sub1
task,mainTask,4,A,493,109,1,651,33933,9,3,magnitudeInc,m,r,t,122,2818399,2819050,A,,,,Sub1
task,mainTask,4,A,494,110,0,658,22122,1,2,parityInc,p,s,t,120,2821061,2821719,A,,,,Sub1
task,mainTask,4,A,495,111,1,594,66466,4,6,magnitudeInc,m,s,t,120,2823651,2824245,A,,,,Sub1
task,mainTask,4,A,496,112,1,554,33933,9,3,magnitudeInc,m,r,t,122,2826299,2826853,A,,,,Sub1
task,mainTask,4,A,497,113,1,567,44844,8,4,magnitudeInc,m,r,t,122,2828796,2829363,A,,,,Sub1
task,mainTask,4,A,498,114,1,530,99399,3,9,magnitudeInc,m,r,t,120,2831349,2831879,A,,,,Sub1
task,mainTask,4,A,499,115,1,773,44644,6,4,magnitudeInc,m,r,t,122,2833881,2834654,A,,,,Sub1
task,mainTask,4,A,500,116,1,535,11711,7,1,magnitudeInc,m,r,t,122,2836619,2837154,A,,,,Sub1
task,mainTask,4,A,501,117,1,465,44844,8,4,magnitudeInc,m,r,t,122,2839179,2839644,A,,,,Sub1
task,mainTask,4,A,502,118,1,625,77177,1,7,magnitudeInc,m,r,t,120,2841622,2842247,A,,,,Sub1
task,mainTask,4,A,503,119,1,617,88288,2,8,magnitudeInc,m,r,t,120,2844254,2844871,A,,,,Sub1
task,mainTask,4,A,504,120,0,805,66966,9,6,parityInc,p,s,t,109,2846692,2847497,A,,,,Sub1
task,mainTask,4,A,505,121,1,512,33333,3,3,congruent,p,r,t,110,2849308,2849820,A,,,,Sub1
task,mainTask,4,A,506,122,1,707,11411,4,1,parityInc,p,r,d,110,2851604,2852311,A,,,,Sub1
task,mainTask,4,A,507,123,1,621,77677,6,7,parityInc,p,r,t,109,2854139,2854760,A,,,,Sub1
task,mainTask,4,A,508,124,1,559,33233,2,3,parityInc,p,r,t,109,2856700,2857259,A,,,,Sub1
task,mainTask,4,A,509,125,0,717,88788,7,8,parityInc,p,r,t,109,2859084,2859801,A,,,,Sub1
task,mainTask,4,A,510,126,1,588,11411,4,1,parityInc,p,r,d,110,2861625,2862213,A,,,,Sub1
task,mainTask,4,A,511,127,0,698,99999,9,9,congruent,m,s,t,120,2864054,2864752,A,,,,Sub1
task,mainTask,4,A,512,128,1,730,22122,1,2,parityInc,p,s,t,110,2866686,2867416,A,,,,Sub1
prac1-1,instructions,1,,,,,,,,,,,,,,,,,0,34398,34398,Sub2
prac1-2,instructions,1,,,,,,,,,,,,,,,,,34400,64922,30522,Sub2
prac1-3,instructions,1,,,,,,,,,,,,,,,,,64922,98618,33696,Sub2
task,pracTask,1,,1,1,1,1155,11111,1,1,congruent,p,n,t,120,102143,103298,,,,,Sub2
task,pracTask,1,,2,2,1,702,11411,4,1,parityInc,p,r,t,122,105345,106047,,,,,Sub2
task,pracTask,1,,3,3,1,832,77777,7,7,congruent,p,r,t,120,107996,108828,,,,,Sub2
task,pracTask,1,,4,4,1,570,33233,2,3,parityInc,p,r,t,122,110728,111298,,,,,Sub2
task,pracTask,1,,5,5,1,734,33333,3,3,congruent,p,r,t,120,113149,113883,,,,,Sub2
task,pracTask,1,,6,6,1,588,66666,6,6,congruent,p,r,t,122,115782,116370,,,,,Sub2
task,pracTask,1,,7,7,1,638,77777,7,7,congruent,p,r,t,120,118241,118879,,,,,Sub2
task,pracTask,1,,8,8,1,587,66666,6,6,congruent,p,r,t,122,120860,121447,,,,,Sub2
task,pracTask,1,,9,9,1,685,99899,8,9,parityInc,p,r,t,122,123366,124051,,,,,Sub2
task,pracTask,1,,10,10,1,664,99999,9,9,congruent,p,r,t,120,126010,126674,,,,,Sub2
task,pracTask,1,,11,11,1,654,11411,4,1,parityInc,p,r,t,122,128580,129234,,,,,Sub2
task,pracTask,1,,12,12,1,708,99899,8,9,parityInc,p,r,t,122,131224,131932,,,,,Sub2
task,pracTask,1,,13,13,1,636,66966,9,6,parityInc,p,r,t,120,133815,134451,,,,,Sub2
task,pracTask,1,,14,14,1,911,11111,1,1,congruent,p,r,t,120,136356,137267,,,,,Sub2
task,pracTask,1,,15,15,1,688,22322,3,2,parityInc,p,r,t,120,139286,139974,,,,,Sub2
task,pracTask,1,,16,16,1,748,33233,2,3,parityInc,p,r,t,122,142016,142764,,,,,Sub2
prac1-3,pracFeedback,1,,,,,,,,,,,,,,,,,144137,147584,3447,Sub2
prac2,instructions,1,,,,,,,,,,,,,,,,,147585,184326,36741,Sub2
task,pracTask,1,,1,1,1,876,88888,8,8,congruent,m,n,t,109,187843,188719,,,,,Sub2
task,pracTask,1,,2,2,1,685,33333,3,3,congruent,m,r,t,110,190581,191266,,,,,Sub2
task,pracTask,1,,3,3,1,689,22622,6,2,magnitudeInc,m,r,t,109,193188,193877,,,,,Sub2
task,pracTask,1,,4,4,1,555,77177,1,7,magnitudeInc,m,r,t,110,195782,196337,,,,,Sub2
task,pracTask,1,,5,5,1,719,22622,6,2,magnitudeInc,m,r,t,109,198404,199123,,,,,Sub2
task,pracTask,1,,6,6,1,484,22222,2,2,congruent,m,r,t,110,201067,201551,,,,,Sub2
task,pracTask,1,,7,7,0,704,66466,4,6,magnitudeInc,m,r,t,109,203407,204111,,,,,Sub2
task,pracTask,1,,8,8,1,723,77777,7,7,congruent,m,r,t,109,206146,206869,,,,,Sub2
task,pracTask,1,,9,9,1,684,44444,4,4,congruent,m,r,t,110,208846,209530,,,,,Sub2
task,pracTask,1,,10,10,1,756,33933,9,3,magnitudeInc,m,r,t,109,211378,212134,,,,,Sub2
task,pracTask,1,,11,11,1,534,33333,3,3,congruent,m,r,t,110,214028,214562,,,,,Sub2
task,pracTask,1,,12,12,1,653,33933,9,3,magnitudeInc,m,r,t,109,216599,217252,,,,,Sub2
task,pracTask,1,,13,13,1,613,77177,1,7,magnitudeInc,m,r,t,110,219222,219835,,,,,Sub2
task,pracTask,1,,14,14,1,598,33733,7,3,magnitudeInc,m,r,t,109,221727,222325,,,,,Sub2
task,pracTask,1,,15,15,1,443,22222,2,2,congruent,m,r,t,110,224625,225068,,,,,Sub2
task,pracTask,1,,16,16,1,598,88888,8,8,congruent,m,r,t,109,227069,227667,,,,,Sub2
prac2,pracFeedback,1,,,,,,,,,,,,,,,,,229200,231653,2453,Sub2
prac3,instructions,1,,,,,,,,,,,,,,,,,231654,337435,105781,Sub2
task,pracTask,1,,1,1,0,,77777,7,7,congruent,p,n,t,,340953,,,,,,Sub2
task,pracTask,1,,2,2,1,1626,66666,6,6,congruent,m,s,t,109,344769,346395,,,,,Sub2
task,pracTask,1,,3,3,1,1417,44444,4,4,congruent,p,s,t,122,348256,349673,,,,,Sub2
task,pracTask,1,,4,4,1,1465,66966,9,6,parityInc,p,r,t,120,351674,353139,,,,,Sub2
task,pracTask,1,,5,5,1,1343,99399,3,9,magnitudeInc,m,s,t,110,355215,356558,,,,,Sub2
task,pracTask,1,,6,6,1,1087,11111,1,1,congruent,m,r,t,110,358567,359654,,,,,Sub2
task,pracTask,1,,7,7,0,848,22222,2,2,congruent,m,r,t,109,361652,362500,,,,,Sub2
task,pracTask,1,,8,8,1,1310,77777,7,7,congruent,p,s,t,120,364583,365893,,,,,Sub2
task,pracTask,1,,9,9,0,1147,22322,3,2,parityInc,p,r,t,122,367991,369138,,,,,Sub2
task,pracTask,1,,10,10,1,1623,22622,6,2,magnitudeInc,m,s,t,109,371216,372839,,,,,Sub2
task,pracTask,1,,11,11,1,1213,22222,2,2,congruent,p,s,t,122,374867,376080,,,,,Sub2
task,pracTask,1,,12,12,0,924,99899,8,9,parityInc,p,r,t,120,378135,379059,,,,,Sub2
task,pracTask,1,,13,13,1,1402,44444,4,4,congruent,p,r,t,122,380991,382393,,,,,Sub2
task,pracTask,1,,14,14,1,1298,44844,8,4,magnitudeInc,m,s,t,109,384322,385620,,,,,Sub2
task,pracTask,1,,15,15,1,1556,33933,9,3,magnitudeInc,m,r,t,109,387480,389036,,,,,Sub2
task,pracTask,1,,16,16,1,842,77177,1,7,magnitudeInc,m,r,t,110,391112,391954,,,,,Sub2
prac3,pracFeedback,1,,,,,,,,,,,,,,,,,393429,396391,2962,Sub2
prac4,instructions,1,,,,,,,,,,,,,,,,,396391,503423,107032,Sub2
task,pracTask,1,,1,1,0,,77677,6,7,parityInc,p,n,t,,506937,,,,,,Sub2
task,pracTask,1,,2,2,0,,88888,8,8,congruent,m,s,t,,510792,,,,,,Sub2
task,pracTask,1,,3,3,1,788,11111,1,1,congruent,m,r,t,110,514505,515293,,,,,Sub2
task,pracTask,1,,4,4,1,1890,22222,2,2,congruent,p,s,d,122,517163,519053,,,,,Sub2
task,pracTask,1,,5,5,1,1947,77777,7,7,congruent,p,r,t,120,520972,522919,,,,,Sub2
task,pracTask,1,,6,6,1,1959,11411,4,1,parityInc,p,r,t,122,524881,526840,,,,,Sub2
task,pracTask,1,,7,7,0,,88288,2,8,magnitudeInc,m,s,t,,528640,,,,,,Sub2
task,pracTask,1,,8,8,0,1687,88888,8,8,congruent,p,s,d,109,532449,534136,,,,,Sub2
task,pracTask,1,,9,9,0,1703,11411,4,1,parityInc,p,r,d,110,536020,537723,,,,,Sub2
task,pracTask,1,,10,10,0,1175,33733,7,3,magnitudeInc,m,s,d,109,539712,540887,,,,,Sub2
task,pracTask,1,,11,11,0,1746,66666,6,6,congruent,m,r,d,110,542991,544737,,,,,Sub2
task,pracTask,1,,12,12,1,792,99999,9,9,congruent,m,r,d,109,546607,547399,,,,,Sub2
task,pracTask,1,,13,13,1,1150,22322,3,2,parityInc,p,s,t,120,549285,550435,,,,,Sub2
task,pracTask,1,,14,14,1,1280,99999,9,9,congruent,p,r,d,120,552411,553691,,,,,Sub2
task,pracTask,1,,15,15,1,1629,99399,3,9,magnitudeInc,m,s,t,110,555559,557188,,,,,Sub2
task,pracTask,1,,16,16,1,1064,77177,1,7,magnitudeInc,m,r,d,109,559059,560123,,,,,Sub2
prac4,pracFeedback,1,,,,,,,,,,,,,,,,,561746,568203,6457,Sub2
prac4,instructions,2,,,,,,,,,,,,,,,,,568205,572327,4122,Sub2
task,pracTask,2,,1,1,0,1388,22322,3,2,parityInc,p,n,t,122,575847,577235,,,,,Sub2
task,pracTask,2,,2,2,0,1339,88288,2,8,magnitudeInc,m,s,t,122,579405,580744,,,,,Sub2
task,pracTask,2,,3,3,0,,77177,1,7,magnitudeInc,m,r,t,,582772,,,,,,Sub2
task,pracTask,2,,4,4,0,1401,77677,6,7,parityInc,p,s,d,110,586534,587935,,,,,Sub2
task,pracTask,2,,5,5,1,1447,11111,1,1,congruent,p,r,t,120,590002,591449,,,,,Sub2
task,pracTask,2,,6,6,1,1388,22222,2,2,congruent,p,r,d,122,593316,594704,,,,,Sub2
task,pracTask,2,,7,7,0,1203,11411,4,1,parityInc,p,r,d,122,596730,597933,,,,,Sub2
task,pracTask,2,,8,8,0,1769,22622,6,2,magnitudeInc,m,s,t,110,599990,601759,,,,,Sub2
task,pracTask,2,,9,9,0,755,44444,4,4,congruent,m,r,d,109,603847,604602,,,,,Sub2
task,pracTask,2,,10,10,0,1658,88888,8,8,congruent,m,r,d,110,606818,608476,,,,,Sub2
task,pracTask,2,,11,11,1,768,33733,7,3,magnitudeInc,m,r,t,109,610427,611195,,,,,Sub2
task,pracTask,2,,12,12,1,1485,99999,9,9,congruent,p,s,t,120,613275,614760,,,,,Sub2
task,pracTask,2,,13,13,1,1617,33333,3,3,congruent,m,s,d,110,616731,618348,,,,,Sub2
task,pracTask,2,,14,14,0,,99899,8,9,parityInc,p,s,d,,620384,,,,,,Sub2
task,pracTask,2,,15,15,1,937,99999,9,9,congruent,p,r,d,120,624097,625034,,,,,Sub2
task,pracTask,2,,16,16,1,1661,77777,7,7,congruent,m,s,t,109,627099,628760,,,,,Sub2
prac4,pracFeedback,2,,,,,,,,,,,,,,,,,630303,633547,3244,Sub2
prac4,instructions,3,,,,,,,,,,,,,,,,,633548,672221,38673,Sub2
task,pracTask,3,,1,1,1,1513,77677,6,7,parityInc,p,n,t,122,675739,677252,,,,,Sub2
task,pracTask,3,,2,2,1,1391,11411,4,1,parityInc,p,r,t,122,679123,680514,,,,,Sub2
task,pracTask,3,,3,3,1,901,99999,9,9,congruent,p,r,t,120,682506,683407,,,,,Sub2
task,pracTask,3,,4,4,1,1389,77777,7,7,congruent,p,r,t,120,685493,686882,,,,,Sub2
task,pracTask,3,,5,5,1,1021,88888,8,8,congruent,p,r,t,122,688914,689935,,,,,Sub2
task,pracTask,3,,6,6,1,1535,33733,7,3,magnitudeInc,m,s,t,109,691977,693512,,,,,Sub2
task,pracTask,3,,7,7,0,1214,77177,1,7,magnitudeInc,m,r,d,110,695474,696688,,,,,Sub2
task,pracTask,3,,8,8,0,1624,99999,9,9,congruent,p,s,t,109,698750,700374,,,,,Sub2
task,pracTask,3,,9,9,0,1820,77177,1,7,magnitudeInc,m,s,d,110,702321,704141,,,,,Sub2
task,pracTask,3,,10,10,1,965,33333,3,3,congruent,m,r,t,110,706058,707023,,,,,Sub2
task,pracTask,3,,11,11,1,1343,66666,6,6,congruent,p,s,d,122,708983,710326,,,,,Sub2
task,pracTask,3,,12,12,0,1138,88288,2,8,magnitudeInc,m,s,d,110,712384,713522,,,,,Sub2
task,pracTask,3,,13,13,1,1430,33333,3,3,congruent,m,r,d,110,715372,716802,,,,,Sub2
task,pracTask,3,,14,14,1,1303,99899,8,9,parityInc,p,s,d,120,718811,720114,,,,,Sub2
task,pracTask,3,,15,15,1,1061,88288,2,8,magnitudeInc,m,s,d,109,721949,723010,,,,,Sub2
task,pracTask,3,,16,16,1,1401,44444,4,4,congruent,m,r,d,110,724917,726318,,,,,Sub2
prac4,pracFeedback,3,,,,,,,,,,,,,,,,,727756,730524,2768,Sub2
main1,instructions,1,,,,,,,,,,,,,,,,,730525,745155,14630,Sub2
main2,instructions,1,,,,,,,,,,,,,,,,,745156,819679,74523,Sub2
task,mainTask,1,C,1,1,1,1676,33333,3,3,congruent,p,n,t,120,823204,824880,C,,,,Sub2
task,mainTask,1,C,2,2,1,1742,44844,8,4,magnitudeInc,m,s,t,109,826758,828500,C,,,,Sub2
task,mainTask,1,C,3,3,1,1468,44444,4,4,congruent,m,r,d,110,830450,831918,C,,,,Sub2
task,mainTask,1,C,4,4,1,1579,33333,3,3,congruent,p,s,t,120,833773,835352,C,,,,Sub2
task,mainTask,1,C,5,5,1,1729,11411,4,1,parityInc,p,r,t,122,837233,838962,C,,,,Sub2
task,mainTask,1,C,6,6,1,992,22222,2,2,congruent,p,r,t,122,840941,841933,C,,,,Sub2
task,mainTask,1,C,7,7,1,706,88888,8,8,congruent,p,r,t,122,843816,844522,C,,,,Sub2
task,mainTask,1,C,8,8,1,1235,77677,6,7,parityInc,p,r,t,122,846433,847668,C,,,,Sub2
task,mainTask,1,C,9,9,1,687,22222,2,2,congruent,p,r,t,122,849638,850325,C,,,,Sub2
task,mainTask,1,C,10,10,1,1046,77777,7,7,congruent,p,r,t,120,852372,853418,C,,,,Sub2
task,mainTask,1,C,11,11,1,890,66666,6,6,congruent,p,r,t,122,855467,856357,C,,,,Sub2
task,mainTask,1,C,12,12,1,1278,11111,1,1,congruent,p,r,t,120,858474,859752,C,,,,Sub2
task,mainTask,1,C,13,13,1,764,99999,9,9,congruent,p,r,t,120,861850,862614,C,,,,Sub2
task,mainTask,1,C,14,14,1,861,11111,1,1,congruent,p,r,t,120,864631,865492,C,,,,Sub2
task,mainTask,1,C,15,15,1,690,88788,7,8,parityInc,p,r,t,120,867573,868263,C,,,,Sub2
task,mainTask,1,C,16,16,1,1214,99999,9,9,congruent,p,r,d,120,870325,871539,C,,,,Sub2
task,mainTask,1,C,17,17,1,1762,66666,6,6,congruent,m,s,t,109,873439,875201,C,,,,Sub2
task,mainTask,1,C,18,18,1,995,88888,8,8,congruent,m,r,t,109,877296,878291,C,,,,Sub2
task,mainTask,1,C,19,19,1,1096,77777,7,7,congruent,m,r,t,109,880399,881495,C,,,,Sub2
task,mainTask,1,C,20,20,1,1079,33333,3,3,congruent,m,r,t,110,883521,884600,C,,,,Sub2
task,mainTask,1,C,21,21,0,1020,44444,4,4,congruent,m,r,t,109,886656,887676,C,,,,Sub2
task,mainTask,1,C,22,22,1,1205,77777,7,7,congruent,m,r,t,109,889640,890845,C,,,,Sub2
task,mainTask,1,C,23,23,0,,44444,4,4,congruent,p,s,t,,892759,,C,,,,Sub2
task,mainTask,1,C,24,24,1,930,22122,1,2,parityInc,p,r,t,120,896474,897404,C,,,,Sub2
task,mainTask,1,C,25,25,0,1112,22222,2,2,congruent,m,s,d,122,899452,900564,C,,,,Sub2
task,mainTask,1,C,26,26,0,1838,66666,6,6,congruent,m,r,t,110,902556,904394,C,,,,Sub2
task,mainTask,1,C,27,27,1,1022,33933,9,3,magnitudeInc,m,r,t,109,906352,907374,C,,,,Sub2
task,mainTask,1,C,28,28,1,1211,11111,1,1,congruent,m,r,d,110,909424,910635,C,,,,Sub2
task,mainTask,1,C,29,29,1,1311,99399,3,9,magnitudeInc,m,r,t,110,912558,913869,C,,,,Sub2
task,mainTask,1,C,30,30,1,819,33933,9,3,magnitudeInc,m,r,t,109,915873,916692,C,,,,Sub2
task,mainTask,1,C,31,31,1,911,88888,8,8,congruent,m,r,t,109,918623,919534,C,,,,Sub2
task,mainTask,1,C,32,32,1,1097,22222,2,2,congruent,m,r,t,110,921616,922713,C,,,,Sub2
task,mainTask,1,C,33,33,1,1660,77677,6,7,parityInc,p,s,t,122,924651,926311,C,,,,Sub2
task,mainTask,1,C,34,34,1,962,22222,2,2,congruent,p,r,t,122,928285,929247,C,,,,Sub2
task,mainTask,1,C,35,35,1,902,66666,6,6,congruent,p,r,d,122,931264,932166,C,,,,Sub2
task,mainTask,1,C,36,36,0,605,88888,8,8,congruent,m,s,t,122,934143,934748,C,,,,Sub2
task,mainTask,1,C,37,37,1,892,33333,3,3,congruent,m,r,t,110,936911,937803,C,,,,Sub2
task,mainTask,1,C,38,38,1,873,33933,9,3,magnitudeInc,m,r,t,109,939769,940642,C,,,,Sub2
task,mainTask,1,C,39,39,1,918,77777,7,7,congruent,m,r,t,109,942768,943686,C,,,,Sub2
task,mainTask,1,C,40,40,1,1166,66966,9,6,parityInc,p,s,t,120,945590,946756,C,,,,Sub2
task,mainTask,1,C,41,41,1,1374,44444,4,4,congruent,m,s,t,110,948709,950083,C,,,,Sub2
task,mainTask,1,C,42,42,1,950,77177,1,7,magnitudeInc,m,r,t,110,951949,952899,C,,,,Sub2
task,mainTask,1,C,43,43,0,692,33333,3,3,congruent,p,s,t,110,954880,955572,C,,,,Sub2
task,mainTask,1,C,44,44,1,1305,99899,8,9,parityInc,p,r,t,122,957750,959055,C,,,,Sub2
task,mainTask,1,C,45,45,0,811,44444,4,4,congruent,m,s,d,122,961146,961957,C,,,,Sub2
task,mainTask,1,C,46,46,1,1131,22222,2,2,congruent,p,s,t,122,964116,965247,C,,,,Sub2
task,mainTask,1,C,47,47,1,1531,11111,1,1,congruent,p,r,t,120,967345,968876,C,,,,Sub2
task,mainTask,1,C,48,48,1,1460,77777,7,7,congruent,p,r,t,120,970864,972324,C,,,,Sub2
task,mainTask,1,C,49,49,1,1199,22222,2,2,congruent,p,r,t,122,974365,975564,C,,,,Sub2
task,mainTask,1,C,50,50,1,1253,88888,8,8,congruent,p,r,t,122,977596,978849,C,,,,Sub2
task,mainTask,1,C,51,51,1,840,66666,6,6,congruent,p,r,t,122,980902,981742,C,,,,Sub2
task,mainTask,1,C,52,52,1,1084,77177,1,7,magnitudeInc,m,s,t,110,983657,984741,C,,,,Sub2
task,mainTask,1,C,53,53,1,1899,44444,4,4,congruent,m,r,t,110,986714,988613,C,,,,Sub2
task,mainTask,1,C,54,54,1,729,33333,3,3,congruent,m,r,t,110,990430,991159,C,,,,Sub2
task,mainTask,1,C,55,55,1,733,77777,7,7,congruent,m,r,t,109,993036,993769,C,,,,Sub2
task,mainTask,1,C,56,56,1,1512,99999,9,9,congruent,p,s,t,120,995660,997172,C,,,,Sub2
task,mainTask,1,C,57,57,1,951,66666,6,6,congruent,p,r,t,122,999021,999972,C,,,,Sub2
task,mainTask,1,C,58,58,1,1360,77777,7,7,congruent,p,r,d,120,1001906,1003266,C,,,,Sub2
task,mainTask,1,C,59,59,1,966,88888,8,8,congruent,m,s,t,109,1005313,1006279,C,,,,Sub2
task,mainTask,1,C,60,60,1,709,22222,2,2,congruent,m,r,t,110,1008301,1009010,C,,,,Sub2
task,mainTask,1,C,61,61,1,671,99999,9,9,congruent,m,r,t,109,1010879,1011550,C,,,,Sub2
task,mainTask,1,C,62,62,1,772,11111,1,1,congruent,m,r,t,110,1013623,1014395,C,,,,Sub2
task,mainTask,1,C,63,63,1,931,44444,4,4,congruent,m,r,d,110,1016270,1017201,C,,,,Sub2
task,mainTask,1,C,64,64,0,787,22322,3,2,parityInc,p,s,t,110,1019174,1019961,C,,,,Sub2
feedback,miniblock,1,C,,,,,,,,,,,,,,,,1021636,1031605,9969,Sub2
task,mainTask,1,C,65,65,1,1680,44444,4,4,congruent,p,n,t,122,1035122,1036802,C,,,,Sub2
task,mainTask,1,C,66,66,1,698,66666,6,6,congruent,p,r,t,122,1038845,1039543,C,,,,Sub2
task,mainTask,1,C,67,67,1,920,33333,3,3,congruent,m,s,t,110,1041572,1042492,C,,,,Sub2
task,mainTask,1,C,68,68,1,1549,66466,4,6,magnitudeInc,m,r,t,110,1044393,1045942,C,,,,Sub2
task,mainTask,1,C,69,69,1,685,88288,2,8,magnitudeInc,m,r,t,110,1047828,1048513,C,,,,Sub2
task,mainTask,1,C,70,70,1,883,99999,9,9,congruent,m,r,t,109,1050501,1051384,C,,,,Sub2
task,mainTask,1,C,71,71,1,766,77777,7,7,congruent,m,r,t,109,1053438,1054204,C,,,,Sub2
task,mainTask,1,C,72,72,0,783,77177,1,7,magnitudeInc,m,r,d,110,1056132,1056915,C,,,,Sub2
task,mainTask,1,C,73,73,1,876,99399,3,9,magnitudeInc,m,r,t,110,1059049,1059925,C,,,,Sub2
task,mainTask,1,C,74,74,1,1331,77777,7,7,congruent,m,r,t,109,1061893,1063224,C,,,,Sub2
task,mainTask,1,C,75,75,1,1194,88888,8,8,congruent,p,s,t,122,1065320,1066514,C,,,,Sub2
task,mainTask,1,C,76,76,1,705,66666,6,6,congruent,p,r,t,122,1068447,1069152,C,,,,Sub2
task,mainTask,1,C,77,77,1,1324,99999,9,9,congruent,p,r,t,120,1071258,1072582,C,,,,Sub2
task,mainTask,1,C,78,78,1,1166,33233,2,3,parityInc,p,r,t,122,1074639,1075805,C,,,,Sub2
task,mainTask,1,C,79,79,1,1020,99899,8,9,parityInc,p,r,t,122,1077684,1078704,C,,,,Sub2
task,mainTask,1,C,80,80,1,1401,11111,1,1,congruent,p,r,d,120,1080774,1082175,C,,,,Sub2
task,mainTask,1,C,81,81,1,1133,66966,9,6,parityInc,p,r,t,120,1084107,1085240,C,,,,Sub2
task,mainTask,1,C,82,82,1,804,33333,3,3,congruent,p,r,t,120,1087249,1088053,C,,,,Sub2
task,mainTask,1,C,83,83,1,826,11411,4,1,parityInc,p,r,t,122,1090065,1090891,C,,,,Sub2
task,mainTask,1,C,84,84,1,888,88788,7,8,parityInc,p,r,t,120,1092850,1093738,C,,,,Sub2
task,mainTask,1,C,85,85,1,1587,44444,4,4,congruent,m,s,t,110,1095642,1097229,C,,,,Sub2
task,mainTask,1,C,86,86,1,959,33333,3,3,congruent,m,r,d,110,1099323,1100282,C,,,,Sub2
task,mainTask,1,C,87,87,1,1003,33733,7,3,magnitudeInc,m,r,t,109,1102318,1103321,C,,,,Sub2
task,mainTask,1,C,88,88,1,769,66666,6,6,congruent,p,s,t,122,1105329,1106098,C,,,,Sub2
task,mainTask,1,C,89,89,1,721,33233,2,3,parityInc,p,r,t,122,1108171,1108892,C,,,,Sub2
task,mainTask,1,C,90,90,1,1100,11111,1,1,congruent,p,r,t,120,1110960,1112060,C,,,,Sub2
task,mainTask,1,C,91,91,1,1144,66966,9,6,parityInc,p,r,d,122,1113979,1115123,C,,,,Sub2
task,mainTask,1,C,92,92,1,683,88888,8,8,congruent,p,r,t,122,1117200,1117883,C,,,,Sub2
task,mainTask,1,C,93,93,1,664,66666,6,6,congruent,p,r,t,122,1119909,1120573,C,,,,Sub2
task,mainTask,1,C,94,94,1,582,22222,2,2,congruent,p,r,t,122,1122552,1123134,C,,,,Sub2
task,mainTask,1,C,95,95,1,567,88888,8,8,congruent,p,r,t,122,1125145,1125712,C,,,,Sub2
task,mainTask,1,C,96,96,1,1313,11111,1,1,congruent,m,s,t,110,1127777,1129090,C,,,,Sub2
task,mainTask,1,C,97,97,1,1064,66666,6,6,congruent,m,r,t,109,1131084,1132148,C,,,,Sub2
task,mainTask,1,C,98,98,1,828,44844,8,4,magnitudeInc,m,r,t,109,1134276,1135104,C,,,,Sub2
task,mainTask,1,C,99,99,1,1008,77777,7,7,congruent,m,r,t,109,1137026,1138034,C,,,,Sub2
task,mainTask,1,C,100,100,1,1117,99999,9,9,congruent,p,s,t,120,1139917,1141034,C,,,,Sub2
task,mainTask,1,C,101,101,1,950,33233,2,3,parityInc,p,r,t,122,1143024,1143974,C,,,,Sub2
task,mainTask,1,C,102,102,1,1110,33333,3,3,congruent,m,s,t,110,1145931,1147041,C,,,,Sub2
task,mainTask,1,C,103,103,0,1022,44444,4,4,congruent,m,r,t,109,1149034,1150056,C,,,,Sub2
task,mainTask,1,C,104,104,1,1707,11111,1,1,congruent,p,s,t,120,1151937,1153644,C,,,,Sub2
task,mainTask,1,C,105,105,1,1188,66666,6,6,congruent,m,s,t,109,1155696,1156884,C,,,,Sub2
task,mainTask,1,C,106,106,1,798,11111,1,1,congruent,m,r,t,110,1158848,1159646,C,,,,Sub2
task,mainTask,1,C,107,107,1,1419,88888,8,8,congruent,m,r,d,109,1161529,1162948,C,,,,Sub2
task,mainTask,1,C,108,108,1,916,88288,2,8,magnitudeInc,m,r,t,110,1165045,1165961,C,,,,Sub2
task,mainTask,1,C,109,109,1,1136,77777,7,7,congruent,m,r,t,109,1167831,1168967,C,,,,Sub2
task,mainTask,1,C,110,110,1,796,99999,9,9,congruent,m,r,t,109,1170848,1171644,C,,,,Sub2
task,mainTask,1,C,111,111,1,1103,44444,4,4,congruent,m,r,d,110,1173591,1174694,C,,,,Sub2
task,mainTask,1,C,112,112,1,607,33333,3,3,congruent,m,r,t,110,1176615,1177222,C,,,,Sub2
task,mainTask,1,C,113,113,1,671,44444,4,4,congruent,m,r,t,110,1179261,1179932,C,,,,Sub2
task,mainTask,1,C,114,114,1,1181,99999,9,9,congruent,p,s,t,120,1181792,1182973,C,,,,Sub2
task,mainTask,1,C,115,115,1,845,22222,2,2,congruent,p,r,t,122,1185027,1185872,C,,,,Sub2
task,mainTask,1,C,116,116,1,1014,66666,6,6,congruent,p,r,t,122,1187737,1188751,C,,,,Sub2
task,mainTask,1,C,117,117,1,616,88888,8,8,congruent,p,r,d,122,1190695,1191311,C,,,,Sub2
task,mainTask,1,C,118,118,1,1338,77677,6,7,parityInc,p,r,t,122,1193285,1194623,C,,,,Sub2
task,mainTask,1,C,119,119,1,799,44444,4,4,congruent,p,r,t,122,1196543,1197342,C,,,,Sub2
task,mainTask,1,C,120,120,1,1233,77777,7,7,congruent,p,r,t,120,1199368,1200601,C,,,,Sub2
task,mainTask,1,C,121,121,1,1009,11111,1,1,congruent,m,s,t,110,1202567,1203576,C,,,,Sub2
task,mainTask,1,C,122,122,1,1179,77777,7,7,congruent,m,r,t,109,1205475,1206654,C,,,,Sub2
task,mainTask,1,C,123,123,1,1438,44844,8,4,magnitudeInc,m,r,t,109,1208717,1210155,C,,,,Sub2
task,mainTask,1,C,124,124,1,1137,99999,9,9,congruent,p,s,t,120,1212016,1213153,C,,,,Sub2
task,mainTask,1,C,125,125,1,1492,22222,2,2,congruent,m,s,t,110,1215094,1216586,C,,,,Sub2
task,mainTask,1,C,126,126,1,1614,33333,3,3,congruent,p,s,t,120,1218512,1220126,C,,,,Sub2
task,mainTask,1,C,127,127,1,1098,11111,1,1,congruent,m,s,d,110,1222190,1223288,C,,,,Sub2
task,mainTask,1,C,128,128,1,573,33333,3,3,congruent,m,r,t,110,1225162,1225735,C,,,,Sub2
feedback,bigBlock,2,D,,,,,,,,,,,,,,,,1227215,1234694,7479,Sub2
task,mainTask,2,D,129,1,1,1156,11111,1,1,congruent,m,n,t,110,1238211,1239367,D,,,,Sub2
task,mainTask,2,D,130,2,1,819,11411,4,1,parityInc,p,s,t,122,1241431,1242250,D,,,,Sub2
task,mainTask,2,D,131,3,1,1466,66966,9,6,parityInc,p,r,t,120,1244112,1245578,D,,,,Sub2
task,mainTask,2,D,132,4,1,805,77777,7,7,congruent,p,r,t,120,1247598,1248403,D,,,,Sub2
task,mainTask,2,D,133,5,1,696,33333,3,3,congruent,p,r,t,120,1250485,1251181,D,,,,Sub2
task,mainTask,2,D,134,6,1,1065,33933,9,3,magnitudeInc,m,s,t,109,1253209,1254274,D,,,,Sub2
task,mainTask,2,D,135,7,1,926,33333,3,3,congruent,m,r,t,110,1256382,1257308,D,,,,Sub2
task,mainTask,2,D,136,8,1,872,22222,2,2,congruent,p,s,t,122,1259406,1260278,D,,,,Sub2
task,mainTask,2,D,137,9,1,1149,66666,6,6,congruent,m,s,t,109,1262216,1263365,D,,,,Sub2
task,mainTask,2,D,138,10,1,853,88888,8,8,congruent,p,s,t,122,1265289,1266142,D,,,,Sub2
task,mainTask,2,D,139,11,1,791,44444,4,4,congruent,m,s,t,110,1268133,1268924,D,,,,Sub2
task,mainTask,2,D,140,12,1,731,66666,6,6,congruent,p,s,d,122,1271012,1271743,D,,,,Sub2
task,mainTask,2,D,141,13,1,1310,77777,7,7,congruent,p,r,t,120,1273656,1274966,D,,,,Sub2
task,mainTask,2,D,142,14,1,897,22222,2,2,congruent,m,s,t,110,1276933,1277830,D,,,,Sub2
task,mainTask,2,D,143,15,1,620,88888,8,8,congruent,p,s,d,122,1279933,1280553,D,,,,Sub2
task,mainTask,2,D,144,16,1,657,11111,1,1,congruent,m,s,t,110,1282647,1283304,D,,,,Sub2
task,mainTask,2,D,145,17,1,702,44444,4,4,congruent,p,s,t,122,1285238,1285940,D,,,,Sub2
task,mainTask,2,D,146,18,1,1228,33333,3,3,congruent,p,r,t,120,1287844,1289072,D,,,,Sub2
task,mainTask,2,D,147,19,0,700,77777,7,7,congruent,m,s,t,110,1290906,1291606,D,,,,Sub2
task,mainTask,2,D,148,20,1,864,88888,8,8,congruent,p,s,t,122,1293554,1294418,D,,,,Sub2
task,mainTask,2,D,149,21,1,766,22222,2,2,congruent,m,s,t,110,1296299,1297065,D,,,,Sub2
task,mainTask,2,D,150,22,1,1105,22122,1,2,parityInc,p,s,t,120,1299140,1300245,D,,,,Sub2
task,mainTask,2,D,151,23,1,798,44844,8,4,magnitudeInc,m,s,t,109,1302176,1302974,D,,,,Sub2
task,mainTask,2,D,152,24,1,910,33333,3,3,congruent,p,s,t,120,1304931,1305841,D,,,,Sub2
task,mainTask,2,D,153,25,1,1694,33933,9,3,magnitudeInc,m,s,t,109,1307742,1309436,D,,,,Sub2
task,mainTask,2,D,154,26,1,649,22222,2,2,congruent,p,s,t,122,1311402,1312051,D,,,,Sub2
task,mainTask,2,D,155,27,1,590,66666,6,6,congruent,p,r,t,122,1313938,1314528,D,,,,Sub2
task,mainTask,2,D,156,28,1,828,11111,1,1,congruent,m,s,d,110,1316473,1317301,D,,,,Sub2
task,mainTask,2,D,157,29,1,1181,66666,6,6,congruent,p,s,t,122,1319380,1320561,D,,,,Sub2
task,mainTask,2,D,158,30,1,880,99999,9,9,congruent,m,s,t,109,1322509,1323389,D,,,,Sub2
task,mainTask,2,D,159,31,1,1595,77777,7,7,congruent,p,s,t,120,1325262,1326857,D,,,,Sub2
task,mainTask,2,D,160,32,1,676,44444,4,4,congruent,p,r,d,122,1328946,1329622,D,,,,Sub2
task,mainTask,2,D,161,33,1,755,11111,1,1,congruent,m,s,t,110,1331509,1332264,D,,,,Sub2
task,mainTask,2,D,162,34,0,602,44444,4,4,congruent,m,r,t,109,1334320,1334922,D,,,,Sub2
task,mainTask,2,D,163,35,1,1034,22222,2,2,congruent,p,s,t,122,1336984,1338018,D,,,,Sub2
task,mainTask,2,D,164,36,1,857,66666,6,6,congruent,m,s,t,109,1339953,1340810,D,,,,Sub2
task,mainTask,2,D,165,37,1,976,99999,9,9,congruent,p,s,t,120,1342737,1343713,D,,,,Sub2
task,mainTask,2,D,166,38,1,876,88888,8,8,congruent,m,s,t,109,1345642,1346518,D,,,,Sub2
task,mainTask,2,D,167,39,0,1009,22122,1,2,parityInc,p,s,d,120,1348459,1349468,D,,,,Sub2
task,mainTask,2,D,168,40,1,1722,33333,3,3,congruent,p,r,t,120,1351481,1353203,D,,,,Sub2
task,mainTask,2,D,169,41,1,900,33933,9,3,magnitudeInc,m,s,t,109,1355226,1356126,D,,,,Sub2
task,mainTask,2,D,170,42,1,753,66666,6,6,congruent,p,s,t,122,1358149,1358902,D,,,,Sub2
task,mainTask,2,D,171,43,1,724,11411,4,1,parityInc,p,r,t,122,1360759,1361483,D,,,,Sub2
task,mainTask,2,D,172,44,1,857,77777,7,7,congruent,m,s,d,109,1363339,1364196,D,,,,Sub2
task,mainTask,2,D,173,45,1,979,33333,3,3,congruent,p,s,t,120,1366166,1367145,D,,,,Sub2
task,mainTask,2,D,174,46,1,1806,22222,2,2,congruent,m,s,t,110,1369103,1370909,D,,,,Sub2
task,mainTask,2,D,175,47,1,849,77777,7,7,congruent,m,r,t,109,1372848,1373697,D,,,,Sub2
task,mainTask,2,D,176,48,1,1101,88888,8,8,congruent,p,s,t,122,1375745,1376846,D,,,,Sub2
task,mainTask,2,D,177,49,1,867,77777,7,7,congruent,m,s,t,109,1378845,1379712,D,,,,Sub2
task,mainTask,2,D,178,50,1,1000,33333,3,3,congruent,p,s,t,120,1381737,1382737,D,,,,Sub2
task,mainTask,2,D,179,51,1,1432,22222,2,2,congruent,m,s,t,110,1384786,1386218,D,,,,Sub2
task,mainTask,2,D,180,52,1,1052,66466,4,6,magnitudeInc,m,r,t,110,1388183,1389235,D,,,,Sub2
task,mainTask,2,D,181,53,1,1024,77777,7,7,congruent,p,s,d,120,1391156,1392180,D,,,,Sub2
task,mainTask,2,D,182,54,1,883,33933,9,3,magnitudeInc,m,s,t,109,1394053,1394936,D,,,,Sub2
task,mainTask,2,D,183,55,1,918,22222,2,2,congruent,p,s,d,122,1396914,1397832,D,,,,Sub2
task,mainTask,2,D,184,56,1,1679,77177,1,7,magnitudeInc,m,s,t,110,1399899,1401578,D,,,,Sub2
task,mainTask,2,D,185,57,1,925,33333,3,3,congruent,p,s,t,120,1403596,1404521,D,,,,Sub2
task,mainTask,2,D,186,58,1,836,99999,9,9,congruent,m,s,t,109,1406575,1407411,D,,,,Sub2
task,mainTask,2,D,187,59,1,656,88888,8,8,congruent,p,s,t,122,1409348,1410004,D,,,,Sub2
task,mainTask,2,D,188,60,1,937,66666,6,6,congruent,m,s,t,109,1411891,1412828,D,,,,Sub2
task,mainTask,2,D,189,61,1,953,11411,4,1,parityInc,p,s,t,122,1414717,1415670,D,,,,Sub2
task,mainTask,2,D,190,62,1,1201,66666,6,6,congruent,m,s,t,109,1417729,1418930,D,,,,Sub2
task,mainTask,2,D,191,63,1,833,88888,8,8,congruent,p,s,t,122,1420961,1421794,D,,,,Sub2
task,mainTask,2,D,192,64,1,1139,11111,1,1,congruent,m,s,t,110,1423715,1424854,D,,,,Sub2
feedback,miniblock,2,D,,,,,,,,,,,,,,,,1426385,1605131,178746,Sub2
task,mainTask,2,D,193,65,0,1,88788,7,8,parityInc,p,n,t,122,1608646,1608647,D,,,,Sub2
task,mainTask,2,D,194,66,1,962,11111,1,1,congruent,p,r,t,120,1610556,1611518,D,,,,Sub2
task,mainTask,2,D,195,67,1,985,22222,2,2,congruent,m,s,t,110,1613569,1614554,D,,,,Sub2
task,mainTask,2,D,196,68,1,1164,33333,3,3,congruent,p,s,t,120,1616617,1617781,D,,,,Sub2
task,mainTask,2,D,197,69,1,836,66666,6,6,congruent,m,s,t,109,1619635,1620471,D,,,,Sub2
task,mainTask,2,D,198,70,1,1050,99999,9,9,congruent,p,s,t,120,1622447,1623497,D,,,,Sub2
task,mainTask,2,D,199,71,1,728,11411,4,1,parityInc,p,r,t,122,1625553,1626281,D,,,,Sub2
task,mainTask,2,D,200,72,1,922,22222,2,2,congruent,m,s,t,110,1628311,1629233,D,,,,Sub2
task,mainTask,2,D,201,73,1,701,66666,6,6,congruent,m,r,t,109,1631284,1631985,D,,,,Sub2
task,mainTask,2,D,202,74,0,900,22122,1,2,parityInc,p,s,d,120,1633872,1634772,D,,,,Sub2
task,mainTask,2,D,203,75,1,866,88888,8,8,congruent,m,s,t,109,1636632,1637498,D,,,,Sub2
task,mainTask,2,D,204,76,1,1685,33333,3,3,congruent,p,s,t,120,1639471,1641156,D,,,,Sub2
task,mainTask,2,D,205,77,1,1575,88888,8,8,congruent,m,s,d,109,1643010,1644585,D,,,,Sub2
task,mainTask,2,D,206,78,1,1277,99999,9,9,congruent,p,s,t,120,1646657,1647934,D,,,,Sub2
task,mainTask,2,D,207,79,1,1740,33733,7,3,magnitudeInc,m,s,t,109,1650011,1651751,D,,,,Sub2
task,mainTask,2,D,208,80,1,1718,44444,4,4,congruent,p,s,t,122,1653861,1655579,D,,,,Sub2
task,mainTask,2,D,209,81,1,1427,11111,1,1,congruent,m,s,t,110,1657566,1658993,D,,,,Sub2
task,mainTask,2,D,210,82,1,866,22222,2,2,congruent,p,s,t,122,1660900,1661766,D,,,,Sub2
task,mainTask,2,D,211,83,1,1205,99999,9,9,congruent,m,s,t,109,1663734,1664939,D,,,,Sub2
task,mainTask,2,D,212,84,1,758,11411,4,1,parityInc,p,s,t,122,1666977,1667735,D,,,,Sub2
task,mainTask,2,D,213,85,1,1024,88888,8,8,congruent,m,s,t,109,1669606,1670630,D,,,,Sub2
task,mainTask,2,D,214,86,1,1686,99999,9,9,congruent,p,s,d,120,1672789,1674475,D,,,,Sub2
task,mainTask,2,D,215,87,1,1616,33733,7,3,magnitudeInc,m,s,t,109,1676401,1678017,D,,,,Sub2
task,mainTask,2,D,216,88,1,715,88888,8,8,congruent,p,s,t,122,1680027,1680742,D,,,,Sub2
task,mainTask,2,D,217,89,1,1087,66666,6,6,congruent,m,s,t,109,1682755,1683842,D,,,,Sub2
task,mainTask,2,D,218,90,1,995,33333,3,3,congruent,p,s,t,120,1686043,1687038,D,,,,Sub2
task,mainTask,2,D,219,91,1,1090,22622,6,2,magnitudeInc,m,s,t,109,1689052,1690142,D,,,,Sub2
task,mainTask,2,D,220,92,1,1078,66466,4,6,magnitudeInc,m,r,t,110,1692103,1693181,D,,,,Sub2
task,mainTask,2,D,221,93,1,631,22222,2,2,congruent,m,r,t,110,1695063,1695694,D,,,,Sub2
task,mainTask,2,D,222,94,1,895,88788,7,8,parityInc,p,s,t,120,1697685,1698580,D,,,,Sub2
task,mainTask,2,D,223,95,1,1533,11111,1,1,congruent,m,s,d,110,1700441,1701974,D,,,,Sub2
task,mainTask,2,D,224,96,1,805,99399,3,9,magnitudeInc,m,r,t,110,1703897,1704702,D,,,,Sub2
task,mainTask,2,D,225,97,1,898,22622,6,2,magnitudeInc,m,r,t,109,1706571,1707469,D,,,,Sub2
task,mainTask,2,D,226,98,1,720,99399,3,9,magnitudeInc,m,r,t,110,1709544,1710264,D,,,,Sub2
task,mainTask,2,D,227,99,1,921,88888,8,8,congruent,p,s,t,122,1712178,1713099,D,,,,Sub2
task,mainTask,2,D,228,100,1,869,77777,7,7,congruent,m,s,t,109,1715163,1716032,D,,,,Sub2
task,mainTask,2,D,229,101,1,1160,22122,1,2,parityInc,p,s,t,120,1718043,1719203,D,,,,Sub2
task,mainTask,2,D,230,102,1,1488,77777,7,7,congruent,m,s,d,109,1721225,1722713,D,,,,Sub2
task,mainTask,2,D,231,103,1,919,44444,4,4,congruent,p,s,t,122,1724649,1725568,D,,,,Sub2
task,mainTask,2,D,232,104,1,831,99999,9,9,congruent,m,s,d,109,1727472,1728303,D,,,,Sub2
task,mainTask,2,D,233,105,1,884,33233,2,3,parityInc,p,s,t,122,1730186,1731070,D,,,,Sub2
task,mainTask,2,D,234,106,1,1152,77677,6,7,parityInc,p,r,t,122,1733136,1734288,D,,,,Sub2
task,mainTask,2,D,235,107,1,663,88888,8,8,congruent,p,r,t,122,1736351,1737014,D,,,,Sub2
task,mainTask,2,D,236,108,1,1184,44444,4,4,congruent,m,s,t,110,1739070,1740254,D,,,,Sub2
task,mainTask,2,D,237,109,1,690,22222,2,2,congruent,p,s,t,122,1742244,1742934,D,,,,Sub2
task,mainTask,2,D,238,110,1,695,99999,9,9,congruent,m,s,t,109,1744955,1745650,D,,,,Sub2
task,mainTask,2,D,239,111,0,1044,11111,1,1,congruent,m,r,t,120,1747719,1748763,D,,,,Sub2
task,mainTask,2,D,240,112,1,1144,33333,3,3,congruent,m,r,t,110,1750605,1751749,D,,,,Sub2
task,mainTask,2,D,241,113,1,1301,22222,2,2,congruent,m,r,t,110,1753615,1754916,D,,,,Sub2
task,mainTask,2,D,242,114,1,794,11411,4,1,parityInc,p,s,t,122,1756900,1757694,D,,,,Sub2
task,mainTask,2,D,243,115,1,888,77777,7,7,congruent,m,s,d,109,1759721,1760609,D,,,,Sub2
task,mainTask,2,D,244,116,1,1356,11111,1,1,congruent,p,s,t,120,1762514,1763870,D,,,,Sub2
task,mainTask,2,D,245,117,1,975,33333,3,3,congruent,p,r,d,120,1765754,1766729,D,,,,Sub2
task,mainTask,2,D,246,118,1,737,88888,8,8,congruent,m,s,t,109,1768696,1769433,D,,,,Sub2
task,mainTask,2,D,247,119,1,690,44444,4,4,congruent,m,r,t,110,1771361,1772051,D,,,,Sub2
task,mainTask,2,D,248,120,1,1149,88788,7,8,parityInc,p,s,t,120,1774130,1775279,D,,,,Sub2
task,mainTask,2,D,249,121,1,1586,33333,3,3,congruent,m,s,t,110,1777281,1778867,D,,,,Sub2
task,mainTask,2,D,250,122,1,632,99999,9,9,congruent,m,r,t,109,1780958,1781590,D,,,,Sub2
task,mainTask,2,D,251,123,1,646,88888,8,8,congruent,m,r,t,109,1783474,1784120,D,,,,Sub2
task,mainTask,2,D,252,124,1,1210,66966,9,6,parityInc,p,s,t,120,1786262,1787472,D,,,,Sub2
task,mainTask,2,D,253,125,1,907,33233,2,3,parityInc,p,r,t,122,1789516,1790423,D,,,,Sub2
task,mainTask,2,D,254,126,1,1206,66666,6,6,congruent,p,r,t,122,1792466,1793672,D,,,,Sub2
task,mainTask,2,D,255,127,0,715,11111,1,1,congruent,m,s,t,109,1795596,1796311,D,,,,Sub2
task,mainTask,2,D,256,128,1,743,66666,6,6,congruent,p,s,t,122,1798278,1799021,D,,,,Sub2
feedback,bigBlock,3,B,,,,,,,,,,,,,,,,1800415,1813908,13493,Sub2
task,mainTask,3,B,257,1,1,874,88788,7,8,parityInc,p,n,t,120,1817419,1818293,B,,,,Sub2
task,mainTask,3,B,258,2,1,1204,44444,4,4,congruent,m,s,t,110,1820336,1821540,B,,,,Sub2
task,mainTask,3,B,259,3,0,1095,22122,1,2,parityInc,p,s,d,120,1823477,1824572,B,,,,Sub2
task,mainTask,3,B,260,4,1,819,33933,9,3,magnitudeInc,m,s,t,109,1826431,1827250,B,,,,Sub2
task,mainTask,3,B,261,5,1,1440,99899,8,9,parityInc,p,s,t,122,1829265,1830705,B,,,,Sub2
task,mainTask,3,B,262,6,0,1227,88288,2,8,magnitudeInc,m,s,t,122,1832705,1833932,B,,,,Sub2
task,mainTask,3,B,263,7,1,1353,44444,4,4,congruent,m,r,t,110,1835641,1836994,B,,,,Sub2
task,mainTask,3,B,264,8,1,1614,77777,7,7,congruent,p,s,t,120,1838898,1840512,B,,,,Sub2
task,mainTask,3,B,265,9,1,1211,99399,3,9,magnitudeInc,m,s,t,110,1842554,1843765,B,,,,Sub2
task,mainTask,3,B,266,10,1,692,66666,6,6,congruent,p,s,t,122,1845646,1846338,B,,,,Sub2
task,mainTask,3,B,267,11,1,783,33333,3,3,congruent,m,s,t,110,1848405,1849188,B,,,,Sub2
task,mainTask,3,B,268,12,1,898,22122,1,2,parityInc,p,s,t,120,1851077,1851975,B,,,,Sub2
task,mainTask,3,B,269,13,1,1156,88288,2,8,magnitudeInc,m,s,d,109,1853995,1855151,B,,,,Sub2
task,mainTask,3,B,270,14,1,1228,44844,8,4,magnitudeInc,m,r,t,109,1857102,1858330,B,,,,Sub2
task,mainTask,3,B,271,15,1,851,66966,9,6,parityInc,p,s,t,120,1860262,1861113,B,,,,Sub2
task,mainTask,3,B,272,16,1,1087,77677,6,7,parityInc,p,r,t,122,1863178,1864265,B,,,,Sub2
task,mainTask,3,B,273,17,1,757,22222,2,2,congruent,p,r,t,122,1866177,1866934,B,,,,Sub2
task,mainTask,3,B,274,18,0,709,44844,8,4,magnitudeInc,m,s,t,122,1868957,1869666,B,,,,Sub2
task,mainTask,3,B,275,19,1,1022,66666,6,6,congruent,p,s,t,122,1871540,1872562,B,,,,Sub2
task,mainTask,3,B,276,20,0,947,33933,9,3,magnitudeInc,m,s,t,120,1874588,1875535,B,,,,Sub2
task,mainTask,3,B,277,21,1,1468,77677,6,7,parityInc,p,s,d,120,1877458,1878926,B,,,,Sub2
task,mainTask,3,B,278,22,1,1055,66466,4,6,magnitudeInc,m,s,t,110,1880833,1881888,B,,,,Sub2
task,mainTask,3,B,279,23,1,700,99399,3,9,magnitudeInc,m,r,t,110,1883959,1884659,B,,,,Sub2
task,mainTask,3,B,280,24,1,1473,66966,9,6,parityInc,p,s,t,120,1886539,1888012,B,,,,Sub2
task,mainTask,3,B,281,25,1,1146,77177,1,7,magnitudeInc,m,s,t,110,1889864,1891010,B,,,,Sub2
task,mainTask,3,B,282,26,1,1064,44444,4,4,congruent,m,r,t,110,1893047,1894111,B,,,,Sub2
task,mainTask,3,B,283,27,1,1267,88788,7,8,parityInc,p,s,t,120,1896113,1897380,B,,,,Sub2
task,mainTask,3,B,284,28,1,1544,99899,8,9,parityInc,p,r,t,122,1899344,1900888,B,,,,Sub2
task,mainTask,3,B,285,29,1,1355,77177,1,7,magnitudeInc,m,s,t,110,1902775,1904130,B,,,,Sub2
task,mainTask,3,B,286,30,1,1575,33233,2,3,parityInc,p,s,d,120,1906163,1907738,B,,,,Sub2
task,mainTask,3,B,287,31,1,1380,33733,7,3,magnitudeInc,m,s,t,109,1909781,1911161,B,,,,Sub2
task,mainTask,3,B,288,32,1,1701,22322,3,2,parityInc,p,s,t,120,1913250,1914951,B,,,,Sub2
task,mainTask,3,B,289,33,1,1339,77177,1,7,magnitudeInc,m,s,t,110,1916962,1918301,B,,,,Sub2
task,mainTask,3,B,290,34,1,1609,77677,6,7,parityInc,p,s,t,122,1920262,1921871,B,,,,Sub2
task,mainTask,3,B,291,35,1,880,22222,2,2,congruent,p,r,t,122,1923962,1924842,B,,,,Sub2
task,mainTask,3,B,292,36,1,787,88888,8,8,congruent,p,r,t,122,1926874,1927661,B,,,,Sub2
task,mainTask,3,B,293,37,1,609,44444,4,4,congruent,p,r,t,122,1929719,1930328,B,,,,Sub2
task,mainTask,3,B,294,38,1,1428,33733,7,3,magnitudeInc,m,s,t,109,1932219,1933647,B,,,,Sub2
task,mainTask,3,B,295,39,1,1040,99399,3,9,magnitudeInc,m,r,t,110,1935607,1936647,B,,,,Sub2
task,mainTask,3,B,296,40,1,1223,88788,7,8,parityInc,p,s,t,120,1938563,1939786,B,,,,Sub2
task,mainTask,3,B,297,41,0,1162,99899,8,9,parityInc,p,r,d,122,1941675,1942837,B,,,,Sub2
task,mainTask,3,B,298,42,1,828,33333,3,3,congruent,p,r,t,120,1944891,1945719,B,,,,Sub2
task,mainTask,3,B,299,43,1,837,33933,9,3,magnitudeInc,m,s,t,109,1947762,1948599,B,,,,Sub2
task,mainTask,3,B,300,44,1,1025,11411,4,1,parityInc,p,s,t,122,1950658,1951683,B,,,,Sub2
task,mainTask,3,B,301,45,1,1208,33933,9,3,magnitudeInc,m,s,t,109,1953542,1954750,B,,,,Sub2
task,mainTask,3,B,302,46,0,,22622,6,2,magnitudeInc,m,r,t,,1956863,,B,,,,Sub2
task,mainTask,3,B,303,47,1,804,33233,2,3,parityInc,p,s,t,122,1960728,1961532,B,,,,Sub2
task,mainTask,3,B,304,48,1,1340,77177,1,7,magnitudeInc,m,s,d,109,1963440,1964780,B,,,,Sub2
task,mainTask,3,B,305,49,1,1070,99999,9,9,congruent,p,s,t,120,1966854,1967924,B,,,,Sub2
task,mainTask,3,B,306,50,1,1227,22622,6,2,magnitudeInc,m,s,t,109,1969776,1971003,B,,,,Sub2
task,mainTask,3,B,307,51,1,1222,99399,3,9,magnitudeInc,m,r,t,110,1972924,1974146,B,,,,Sub2
task,mainTask,3,B,308,52,1,1484,22222,2,2,congruent,m,r,t,110,1976145,1977629,B,,,,Sub2
task,mainTask,3,B,309,53,1,847,88888,8,8,congruent,p,s,t,122,1979584,1980431,B,,,,Sub2
task,mainTask,3,B,310,54,1,1375,33933,9,3,magnitudeInc,m,s,d,110,1982344,1983719,B,,,,Sub2
task,mainTask,3,B,311,55,1,1275,22322,3,2,parityInc,p,s,t,120,1985684,1986959,B,,,,Sub2
task,mainTask,3,B,312,56,1,1253,66466,4,6,magnitudeInc,m,s,t,110,1988930,1990183,B,,,,Sub2
task,mainTask,3,B,313,57,1,762,22222,2,2,congruent,p,s,t,122,1992046,1992808,B,,,,Sub2
task,mainTask,3,B,314,58,0,1610,88788,7,8,parityInc,p,r,t,109,1994735,1996345,B,,,,Sub2
task,mainTask,3,B,315,59,1,1152,22622,6,2,magnitudeInc,m,s,t,109,1998548,1999700,B,,,,Sub2
task,mainTask,3,B,316,60,1,1013,22122,1,2,parityInc,p,s,t,120,2001755,2002768,B,,,,Sub2
task,mainTask,3,B,317,61,1,1208,33733,7,3,magnitudeInc,m,s,t,109,2004833,2006041,B,,,,Sub2
task,mainTask,3,B,318,62,1,1533,44844,8,4,magnitudeInc,m,r,t,109,2008020,2009553,B,,,,Sub2
task,mainTask,3,B,319,63,1,1667,22122,1,2,parityInc,p,s,d,122,2011420,2013087,B,,,,Sub2
task,mainTask,3,B,320,64,1,860,44444,4,4,congruent,m,s,t,110,2015022,2015882,B,,,,Sub2
feedback,miniblock,3,B,,,,,,,,,,,,,,,,2017403,2022482,5079,Sub2
task,mainTask,3,B,321,65,1,1548,99999,9,9,congruent,p,n,t,120,2026005,2027553,B,,,,Sub2
task,mainTask,3,B,322,66,1,1371,77777,7,7,congruent,m,s,t,109,2029509,2030880,B,,,,Sub2
task,mainTask,3,B,323,67,0,1531,11411,4,1,parityInc,p,s,d,122,2032783,2034314,B,,,,Sub2
task,mainTask,3,B,324,68,1,1130,22622,6,2,magnitudeInc,m,s,t,109,2036269,2037399,B,,,,Sub2
task,mainTask,3,B,325,69,1,842,33333,3,3,congruent,m,r,t,110,2039298,2040140,B,,,,Sub2
task,mainTask,3,B,326,70,1,1226,77677,6,7,parityInc,p,s,t,122,2042210,2043436,B,,,,Sub2
task,mainTask,3,B,327,71,1,1180,66966,9,6,parityInc,p,r,t,120,2045490,2046670,B,,,,Sub2
task,mainTask,3,B,328,72,1,1527,77777,7,7,congruent,m,s,t,109,2048636,2050163,B,,,,Sub2
task,mainTask,3,B,329,73,1,1016,88888,8,8,congruent,p,s,t,122,2052145,2053161,B,,,,Sub2
task,mainTask,3,B,330,74,1,1158,11111,1,1,congruent,m,s,t,110,2055118,2056276,B,,,,Sub2
task,mainTask,3,B,331,75,1,1297,33233,2,3,parityInc,p,s,t,122,2058232,2059529,B,,,,Sub2
task,mainTask,3,B,332,76,1,1486,66466,4,6,magnitudeInc,m,s,t,110,2061431,2062917,B,,,,Sub2
task,mainTask,3,B,333,77,1,1221,44844,8,4,magnitudeInc,m,r,t,109,2064983,2066204,B,,,,Sub2
task,mainTask,3,B,334,78,1,1046,33233,2,3,parityInc,p,s,t,122,2068133,2069179,B,,,,Sub2
task,mainTask,3,B,335,79,1,1521,99399,3,9,magnitudeInc,m,s,t,110,2071080,2072601,B,,,,Sub2
task,mainTask,3,B,336,80,0,965,22122,1,2,parityInc,p,s,d,120,2074488,2075453,B,,,,Sub2
task,mainTask,3,B,337,81,1,1790,66466,4,6,magnitudeInc,m,s,t,110,2077455,2079245,B,,,,Sub2
task,mainTask,3,B,338,82,1,828,99999,9,9,congruent,p,s,t,120,2081264,2082092,B,,,,Sub2
task,mainTask,3,B,339,83,1,965,99899,8,9,parityInc,p,r,t,122,2084047,2085012,B,,,,Sub2
task,mainTask,3,B,340,84,1,878,33933,9,3,magnitudeInc,m,s,t,109,2086909,2087787,B,,,,Sub2
task,mainTask,3,B,341,85,1,1446,88788,7,8,parityInc,p,s,d,122,2089783,2091229,B,,,,Sub2
task,mainTask,3,B,342,86,1,822,33233,2,3,parityInc,p,r,t,122,2093198,2094020,B,,,,Sub2
task,mainTask,3,B,343,87,0,1076,77177,1,7,magnitudeInc,m,s,t,109,2095934,2097010,B,,,,Sub2
task,mainTask,3,B,344,88,0,1052,22622,6,2,magnitudeInc,m,r,d,109,2099053,2100105,B,,,,Sub2
task,mainTask,3,B,345,89,1,979,33233,2,3,parityInc,p,s,t,122,2102252,2103231,B,,,,Sub2
task,mainTask,3,B,346,90,1,929,99399,3,9,magnitudeInc,m,s,t,110,2105168,2106097,B,,,,Sub2
task,mainTask,3,B,347,91,0,1140,99899,8,9,parityInc,p,s,t,109,2107936,2109076,B,,,,Sub2
task,mainTask,3,B,348,92,1,953,66466,4,6,magnitudeInc,m,s,t,110,2110999,2111952,B,,,,Sub2
task,mainTask,3,B,349,93,1,1248,22322,3,2,parityInc,p,s,t,120,2113903,2115151,B,,,,Sub2
task,mainTask,3,B,350,94,1,757,22622,6,2,magnitudeInc,m,s,t,109,2117152,2117909,B,,,,Sub2
task,mainTask,3,B,351,95,1,839,33733,7,3,magnitudeInc,m,r,t,109,2120009,2120848,B,,,,Sub2
task,mainTask,3,B,352,96,1,913,22122,1,2,parityInc,p,s,t,120,2122754,2123667,B,,,,Sub2
task,mainTask,3,B,353,97,1,942,33333,3,3,congruent,p,r,t,120,2125720,2126662,B,,,,Sub2
task,mainTask,3,B,354,98,1,885,33733,7,3,magnitudeInc,m,s,t,109,2128535,2129420,B,,,,Sub2
task,mainTask,3,B,355,99,1,1069,99899,8,9,parityInc,p,s,t,122,2131378,2132447,B,,,,Sub2
task,mainTask,3,B,356,100,1,1296,22622,6,2,magnitudeInc,m,s,t,109,2134306,2135602,B,,,,Sub2
task,mainTask,3,B,357,101,1,1270,88888,8,8,congruent,p,s,t,122,2137765,2139035,B,,,,Sub2
task,mainTask,3,B,358,102,1,1350,22122,1,2,parityInc,p,r,t,120,2141029,2142379,B,,,,Sub2
task,mainTask,3,B,359,103,1,1841,22222,2,2,congruent,m,s,t,110,2144462,2146303,B,,,,Sub2
task,mainTask,3,B,360,104,1,1068,66966,9,6,parityInc,p,s,t,120,2148278,2149346,B,,,,Sub2
task,mainTask,3,B,361,105,1,1578,44444,4,4,congruent,m,s,t,110,2151492,2153070,B,,,,Sub2
task,mainTask,3,B,362,106,1,1283,22322,3,2,parityInc,p,s,d,122,2155034,2156317,B,,,,Sub2
task,mainTask,3,B,363,107,1,1131,77177,1,7,magnitudeInc,m,s,t,110,2158213,2159344,B,,,,Sub2
task,mainTask,3,B,364,108,1,778,11411,4,1,parityInc,p,s,t,122,2161388,2162166,B,,,,Sub2
task,mainTask,3,B,365,109,1,1318,88288,2,8,magnitudeInc,m,s,t,110,2164092,2165410,B,,,,Sub2
task,mainTask,3,B,366,110,0,,66666,6,6,congruent,m,r,d,,2167457,,B,,,,Sub2
task,mainTask,3,B,367,111,1,1068,88788,7,8,parityInc,p,s,t,120,2171379,2172447,B,,,,Sub2
task,mainTask,3,B,368,112,1,708,33933,9,3,magnitudeInc,m,s,t,109,2174469,2175177,B,,,,Sub2
task,mainTask,3,B,369,113,1,700,99899,8,9,parityInc,p,s,t,122,2177142,2177842,B,,,,Sub2
task,mainTask,3,B,370,114,1,888,33933,9,3,magnitudeInc,m,s,t,109,2179898,2180786,B,,,,Sub2
task,mainTask,3,B,371,115,1,1041,99399,3,9,magnitudeInc,m,r,d,109,2182865,2183906,B,,,,Sub2
task,mainTask,3,B,372,116,1,836,44444,4,4,congruent,p,s,t,122,2186137,2186973,B,,,,Sub2
task,mainTask,3,B,373,117,1,666,33933,9,3,magnitudeInc,m,s,t,109,2188822,2189488,B,,,,Sub2
task,mainTask,3,B,374,118,1,1299,22122,1,2,parityInc,p,s,t,120,2191363,2192662,B,,,,Sub2
task,mainTask,3,B,375,119,1,1029,22222,2,2,congruent,p,r,t,122,2194706,2195735,B,,,,Sub2
task,mainTask,3,B,376,120,1,1211,77677,6,7,parityInc,p,r,t,122,2197737,2198948,B,,,,Sub2
task,mainTask,3,B,377,121,1,875,77177,1,7,magnitudeInc,m,s,t,110,2201023,2201898,B,,,,Sub2
task,mainTask,3,B,378,122,1,1281,88788,7,8,parityInc,p,s,t,120,2203827,2205108,B,,,,Sub2
task,mainTask,3,B,379,123,1,1300,22622,6,2,magnitudeInc,m,s,t,109,2207250,2208550,B,,,,Sub2
task,mainTask,3,B,380,124,1,1373,11411,4,1,parityInc,p,s,t,122,2210744,2212117,B,,,,Sub2
task,mainTask,3,B,381,125,1,1175,44844,8,4,magnitudeInc,m,s,t,109,2214120,2215295,B,,,,Sub2
task,mainTask,3,B,382,126,1,1644,77777,7,7,congruent,m,r,t,109,2217263,2218907,B,,,,Sub2
task,mainTask,3,B,383,127,1,1517,22322,3,2,parityInc,p,s,t,120,2220947,2222464,B,,,,Sub2
task,mainTask,3,B,384,128,1,1840,88288,2,8,magnitudeInc,m,s,d,109,2224525,2226365,B,,,,Sub2
feedback,bigBlock,4,A,,,,,,,,,,,,,,,,2227725,2236100,8375,Sub2
task,mainTask,4,A,385,1,1,900,33933,9,3,magnitudeInc,m,n,t,109,2239619,2240519,A,,,,Sub2
task,mainTask,4,A,386,2,1,653,33233,2,3,parityInc,p,s,t,122,2242685,2243338,A,,,,Sub2
task,mainTask,4,A,387,3,1,1435,88788,7,8,parityInc,p,r,t,120,2245375,2246810,A,,,,Sub2
task,mainTask,4,A,388,4,1,865,33233,2,3,parityInc,p,r,t,122,2248754,2249619,A,,,,Sub2
task,mainTask,4,A,389,5,1,1369,33333,3,3,congruent,p,r,t,120,2251645,2253014,A,,,,Sub2
task,mainTask,4,A,390,6,1,881,77677,6,7,parityInc,p,r,t,122,2254928,2255809,A,,,,Sub2
task,mainTask,4,A,391,7,1,973,88888,8,8,congruent,m,s,t,109,2257830,2258803,A,,,,Sub2
task,mainTask,4,A,392,8,1,987,88788,7,8,parityInc,p,s,d,122,2260736,2261723,A,,,,Sub2
task,mainTask,4,A,393,9,1,836,22122,1,2,parityInc,p,r,t,120,2263681,2264517,A,,,,Sub2
task,mainTask,4,A,394,10,1,1284,66466,4,6,magnitudeInc,m,s,t,110,2266473,2267757,A,,,,Sub2
task,mainTask,4,A,395,11,1,1113,66966,9,6,parityInc,p,s,t,120,2269746,2270859,A,,,,Sub2
task,mainTask,4,A,396,12,1,1294,22122,1,2,parityInc,p,r,t,120,2272791,2274085,A,,,,Sub2
task,mainTask,4,A,397,13,0,,11411,4,1,parityInc,p,r,t,,2276014,,A,,,,Sub2
task,mainTask,4,A,398,14,1,1132,33333,3,3,congruent,p,r,t,120,2279883,2281015,A,,,,Sub2
task,mainTask,4,A,399,15,1,663,88888,8,8,congruent,p,r,t,122,2282879,2283542,A,,,,Sub2
task,mainTask,4,A,400,16,1,951,77677,6,7,parityInc,p,r,d,120,2285528,2286479,A,,,,Sub2
task,mainTask,4,A,401,17,1,1008,99399,3,9,magnitudeInc,m,s,t,110,2288522,2289530,A,,,,Sub2
task,mainTask,4,A,402,18,1,792,22622,6,2,magnitudeInc,m,r,t,109,2291522,2292314,A,,,,Sub2
task,mainTask,4,A,403,19,1,968,22322,3,2,parityInc,p,s,t,120,2294484,2295452,A,,,,Sub2
task,mainTask,4,A,404,20,1,927,22122,1,2,parityInc,p,r,t,120,2297436,2298363,A,,,,Sub2
task,mainTask,4,A,405,21,1,938,99899,8,9,parityInc,p,r,t,122,2300300,2301238,A,,,,Sub2
task,mainTask,4,A,406,22,1,1014,33933,9,3,magnitudeInc,m,s,d,110,2303180,2304194,A,,,,Sub2
task,mainTask,4,A,407,23,1,889,22622,6,2,magnitudeInc,m,r,t,109,2306259,2307148,A,,,,Sub2
task,mainTask,4,A,408,24,1,1137,11111,1,1,congruent,p,s,t,120,2309045,2310182,A,,,,Sub2
task,mainTask,4,A,409,25,1,951,88888,8,8,congruent,p,r,d,122,2312253,2313204,A,,,,Sub2
task,mainTask,4,A,410,26,1,775,88788,7,8,parityInc,p,r,t,120,2315078,2315853,A,,,,Sub2
task,mainTask,4,A,411,27,1,1559,11411,4,1,parityInc,p,r,t,122,2317901,2319460,A,,,,Sub2
task,mainTask,4,A,412,28,1,562,22222,2,2,congruent,p,r,t,122,2321496,2322058,A,,,,Sub2
task,mainTask,4,A,413,29,1,615,11411,4,1,parityInc,p,r,t,122,2324030,2324645,A,,,,Sub2
task,mainTask,4,A,414,30,1,856,77777,7,7,congruent,m,s,t,109,2326567,2327423,A,,,,Sub2
task,mainTask,4,A,415,31,1,1529,88288,2,8,magnitudeInc,m,r,t,110,2329480,2331009,A,,,,Sub2
task,mainTask,4,A,416,32,1,752,33933,9,3,magnitudeInc,m,r,t,109,2332932,2333684,A,,,,Sub2
task,mainTask,4,A,417,33,1,1064,66466,4,6,magnitudeInc,m,r,t,110,2335729,2336793,A,,,,Sub2
task,mainTask,4,A,418,34,1,697,33933,9,3,magnitudeInc,m,r,t,109,2338680,2339377,A,,,,Sub2
task,mainTask,4,A,419,35,1,848,33733,7,3,magnitudeInc,m,r,d,110,2341305,2342153,A,,,,Sub2
task,mainTask,4,A,420,36,0,758,77177,1,7,magnitudeInc,m,r,t,109,2344053,2344811,A,,,,Sub2
task,mainTask,4,A,421,37,1,979,22622,6,2,magnitudeInc,m,r,t,109,2346893,2347872,A,,,,Sub2
task,mainTask,4,A,422,38,1,705,88288,2,8,magnitudeInc,m,r,t,110,2349831,2350536,A,,,,Sub2
task,mainTask,4,A,423,39,1,730,77177,1,7,magnitudeInc,m,r,t,110,2352593,2353323,A,,,,Sub2
task,mainTask,4,A,424,40,1,1004,66466,4,6,magnitudeInc,m,r,t,110,2355238,2356242,A,,,,Sub2
task,mainTask,4,A,425,41,1,598,88288,2,8,magnitudeInc,m,r,t,110,2358309,2358907,A,,,,Sub2
task,mainTask,4,A,426,42,1,686,33933,9,3,magnitudeInc,m,r,t,109,2360806,2361492,A,,,,Sub2
task,mainTask,4,A,427,43,1,845,44844,8,4,magnitudeInc,m,r,d,110,2363548,2364393,A,,,,Sub2
task,mainTask,4,A,428,44,1,1109,33733,7,3,magnitudeInc,m,r,t,109,2366329,2367438,A,,,,Sub2
task,mainTask,4,A,429,45,1,685,33333,3,3,congruent,m,r,t,110,2369535,2370220,A,,,,Sub2
task,mainTask,4,A,430,46,1,711,22622,6,2,magnitudeInc,m,r,t,109,2372333,2373044,A,,,,Sub2
task,mainTask,4,A,431,47,1,773,99399,3,9,magnitudeInc,m,r,t,110,2375058,2375831,A,,,,Sub2
task,mainTask,4,A,432,48,0,699,44844,8,4,magnitudeInc,m,r,t,110,2377718,2378417,A,,,,Sub2
task,mainTask,4,A,433,49,1,1346,66666,6,6,congruent,p,s,t,122,2380611,2381957,A,,,,Sub2
task,mainTask,4,A,434,50,1,698,22322,3,2,parityInc,p,r,t,120,2383955,2384653,A,,,,Sub2
task,mainTask,4,A,435,51,1,812,88788,7,8,parityInc,p,r,t,120,2386760,2387572,A,,,,Sub2
task,mainTask,4,A,436,52,1,804,77677,6,7,parityInc,p,r,t,122,2389539,2390343,A,,,,Sub2
task,mainTask,4,A,437,53,0,777,22222,2,2,congruent,m,s,t,122,2392376,2393153,A,,,,Sub2
task,mainTask,4,A,438,54,1,1524,33933,9,3,magnitudeInc,m,r,t,109,2395140,2396664,A,,,,Sub2
task,mainTask,4,A,439,55,1,1173,33233,2,3,parityInc,p,s,d,120,2398695,2399868,A,,,,Sub2
task,mainTask,4,A,440,56,1,793,22122,1,2,parityInc,p,r,t,120,2401826,2402619,A,,,,Sub2
task,mainTask,4,A,441,57,1,828,22322,3,2,parityInc,p,r,t,120,2404488,2405316,A,,,,Sub2
task,mainTask,4,A,442,58,1,805,99899,8,9,parityInc,p,r,t,122,2407283,2408088,A,,,,Sub2
task,mainTask,4,A,443,59,1,1406,77177,1,7,magnitudeInc,m,s,t,110,2410011,2411417,A,,,,Sub2
task,mainTask,4,A,444,60,0,1264,44444,4,4,congruent,m,r,d,109,2413507,2414771,A,,,,Sub2
task,mainTask,4,A,445,61,1,725,77777,7,7,congruent,m,r,t,109,2416885,2417610,A,,,,Sub2
task,mainTask,4,A,446,62,1,730,44444,4,4,congruent,m,r,t,110,2419504,2420234,A,,,,Sub2
task,mainTask,4,A,447,63,1,664,88888,8,8,congruent,m,r,t,109,2422215,2422879,A,,,,Sub2
task,mainTask,4,A,448,64,1,1246,33933,9,3,magnitudeInc,m,r,t,109,2424856,2426102,A,,,,Sub2
feedback,miniblock,4,A,,,,,,,,,,,,,,,,2427843,2432245,4402,Sub2
